id,block_id,trial_idx,image_id,response,rt,participant_id
3,3,1,5787,91,4160,6
6,3,2,4524,44,6684,6
9,3,3,978,16,5370,6
12,3,4,1251,6,4919,6
15,3,5,2766,16,3540,6
18,3,6,3345,44,5922,6
21,3,7,3795,1,3569,6
24,3,8,831,67,6901,6
27,3,9,4245,0,3101,6
30,3,10,3423,89,4103,6
33,3,11,3456,92,4554,6
36,3,12,3711,100,3311,6
39,3,13,3201,100,2555,6
42,3,14,636,45,4823,6
45,3,15,1371,43,4278,6
48,3,16,828,57,5082,6
51,3,17,2685,14,2843,6
54,3,18,3276,74,4188,6
57,3,19,315,16,2267,6
60,3,20,3000,88,4253,6
63,3,21,3153,100,2441,6
66,3,22,2514,5,1991,6
69,3,23,1809,90,4638,6
72,3,24,2211,4,3096,6
75,3,25,2469,6,2681,6
78,3,26,2205,4,2957,6
81,3,27,3681,100,2850,6
84,3,28,3093,74,3065,6
87,3,29,1248,5,2195,6
90,3,30,1668,100,3479,6
93,3,31,4197,0,1781,6
96,3,32,2973,76,2639,6
99,3,33,2247,4,3251,6
102,3,34,2307,59,3401,6
105,3,35,1278,3,2519,6
108,3,36,5169,73,5132,6
111,3,37,5763,63,2639,6
114,3,38,1140,44,2688,6
117,3,39,4041,11,2915,6
120,3,40,1257,2,2171,6
123,3,41,5334,60,3793,6
126,3,42,4731,76,6577,6
129,3,43,5769,62,1877,6
132,3,44,5835,43,2448,6
135,3,45,3609,63,1901,6
138,3,46,4971,60,2903,6
141,3,47,2997,61,2771,6
144,3,48,438,31,2094,6
147,3,49,1491,41,3899,6
150,3,50,4386,7,4008,6
153,3,51,609,16,2549,6
156,3,52,5955,41,3659,6
159,3,53,5811,93,2729,6
162,3,54,4896,60,3072,6
165,3,55,5160,89,3095,6
168,3,56,21,92,2057,6
171,3,57,5016,82,3281,6
174,3,58,4737,99,2976,6
177,3,59,5853,83,3179,6
180,3,60,3348,84,2399,6
183,3,61,4164,4,1980,6
186,3,62,2043,1,1697,6
189,3,63,1176,9,2279,6
192,3,64,5616,59,2183,6
195,3,65,5595,77,3209,6
198,3,66,4014,0,3029,6
201,3,67,1632,60,1955,6
204,3,68,4191,0,2849,6
207,3,69,795,40,3798,6
210,3,70,5694,91,2831,6
213,3,71,4500,39,3264,6
216,3,72,3639,67,1756,6
219,3,73,4977,77,1721,6
222,3,74,4329,2,1727,6
225,3,75,3294,79,3803,6
228,3,76,4596,60,2910,6
231,3,77,3744,6,4001,6
234,3,78,2838,78,2297,6
237,3,79,30,25,2717,6
240,3,80,1059,92,3636,6
243,3,81,1284,64,2423,6
246,3,82,3243,95,2297,6
249,3,83,4074,0,2729,6
252,3,84,966,83,2368,6
255,3,85,2631,0,1991,6
258,3,86,5367,100,2921,6
261,3,87,1905,0,1847,6
264,3,88,5052,77,2129,6
267,3,89,294,2,2567,6
270,3,90,3222,100,4296,6
273,3,91,1080,24,3419,6
276,3,92,2325,75,2663,6
279,3,93,5514,40,2609,6
282,3,94,5142,90,2243,6
285,3,95,2655,6,1811,6
288,3,96,1545,43,2291,6
291,3,97,738,25,2598,6
294,3,98,66,24,1942,6
297,3,99,306,43,3335,6
300,3,100,2688,7,2423,6
303,3,101,3846,0,1967,6
306,3,102,4137,2,2158,6
309,3,103,873,67,2927,6
312,3,104,3312,88,2987,6
315,3,105,1038,3,2423,6
318,3,106,4815,43,2050,6
321,3,107,1569,90,3233,6
324,3,108,549,1,2543,6
327,3,109,3909,25,9241,6
330,3,110,5232,90,4175,6
333,3,111,3717,1,1870,6
336,3,112,5283,58,2075,6
339,3,113,5544,74,3227,6
342,3,114,1269,3,2314,6
345,3,115,1263,4,2093,6
348,3,116,4260,4,2411,6
351,3,117,177,44,2200,6
354,3,118,111,44,1907,6
357,3,119,3867,2,1883,6
360,3,120,627,41,1960,6
363,3,121,2226,1,2658,6
366,3,122,2772,60,3425,6
369,3,123,3306,87,2598,6
372,3,124,3216,72,3304,6
375,3,125,5733,93,2711,6
378,3,126,4125,10,2411,6
381,3,127,174,1,2651,6
384,3,128,4911,65,2123,6
387,3,129,1704,66,2140,6
390,3,130,3132,90,2993,6
393,3,131,2559,7,1973,6
396,3,132,3048,89,3251,6
399,3,133,2190,2,2297,6
402,3,134,5670,100,2591,6
405,3,135,4155,0,2639,6
408,3,136,3849,0,1787,6
411,3,137,2991,45,2561,6
414,3,138,5808,100,3647,6
417,3,139,3948,56,4469,6
420,3,140,3015,62,2417,6
423,3,141,4560,100,2621,6
426,3,142,3507,100,1991,6
429,3,143,5061,75,2752,6
432,3,144,780,58,2201,6
435,3,145,2532,9,2147,6
438,3,146,288,57,2525,6
441,3,147,447,0,1895,6
444,3,148,267,56,2807,6
447,3,149,4782,78,2411,6
450,3,150,2955,60,2459,6
453,3,151,1323,24,2009,6
456,3,152,2580,0,1606,6
459,3,153,3885,0,1805,6
462,3,154,2430,0,1673,6
465,3,155,1095,59,2375,6
468,3,156,1836,,,6
471,3,157,1728,,,6
474,3,158,4233,,,6
477,3,159,1182,,,6
480,3,160,690,,,6
483,3,161,1419,,,6
486,3,162,5040,,,6
489,3,163,1227,,,6
492,3,164,948,,,6
495,3,165,4587,,,6
498,3,166,2667,,,6
501,3,167,4557,,,6
504,3,168,4008,,,6
507,3,169,4905,,,6
510,3,170,969,,,6
513,3,171,1638,,,6
516,3,172,3651,,,6
519,3,173,5778,,,6
522,3,174,4533,,,6
525,3,175,3585,,,6
528,3,176,720,,,6
531,3,177,3705,,,6
534,3,178,4800,,,6
537,3,179,1656,,,6
540,3,180,1452,,,6
543,3,181,4644,,,6
546,3,182,3099,,,6
549,3,183,1314,,,6
552,3,184,4395,82,4692,6
555,3,185,3144,100,2237,6
558,3,186,480,0,1990,6
561,3,187,4302,0,3066,6
564,3,188,4506,69,3179,6
567,3,189,1362,55,2398,6
570,3,190,159,25,2561,6
573,3,191,1431,75,2819,6
576,3,192,54,57,5550,6
579,3,193,4281,0,2777,6
582,3,194,2019,16,2885,6
585,3,195,5139,90,2807,6
588,3,196,2931,61,2242,6
591,3,197,1917,0,2213,6
594,3,198,5148,59,1907,6
597,3,199,1086,23,5790,6
600,3,200,3234,89,2411,6
603,3,201,1701,63,2117,6
606,3,202,1230,40,2363,6
609,3,203,1458,0,2788,6
612,3,204,4005,0,1787,6
615,3,205,2877,66,2573,6
618,3,206,4635,85,2453,6
621,3,207,1776,84,1888,6
624,3,208,3108,82,2591,6
627,3,209,327,0,2201,6
630,3,210,5643,68,3334,6
633,3,211,3168,86,1877,6
636,3,212,4002,0,1847,6
639,3,213,5874,77,2230,6
642,3,214,5799,76,3071,6
645,3,215,2865,90,2147,6
648,3,216,4995,98,2267,6
651,3,217,4623,64,2255,6
654,3,218,2136,0,1912,6
657,3,219,2196,34,1655,6
660,3,220,3534,89,2285,6
663,3,221,1398,61,2951,6
666,3,222,5229,68,1769,6
669,3,223,1050,70,2255,6
672,3,224,2475,16,3227,6
675,3,225,1053,69,2237,6
678,3,226,912,55,6668,6
681,3,227,5388,67,2110,6
684,3,228,1758,92,3371,6
687,3,229,1377,40,2141,6
690,3,230,4263,0,1696,6
693,3,231,1002,16,2417,6
696,3,232,1842,83,4308,6
699,3,233,3768,9,4043,6
702,3,234,732,46,2909,6
705,3,235,1485,37,3047,6
708,3,236,5766,76,3569,6
711,3,237,501,0,1924,6
714,3,238,42,55,2003,6
717,3,239,282,57,2261,6
720,3,240,2031,41,2566,6
723,6,1,1710,17,9054,15
726,6,2,399,2,5343,15
729,6,3,5661,83,5460,15
732,6,4,4728,67,4006,15
735,6,5,2127,67,3493,15
738,6,6,2442,50,3860,15
741,6,7,3318,66,4779,15
744,6,8,2358,50,4626,15
747,6,9,396,99,4443,15
750,6,10,3375,97,4978,15
753,6,11,507,67,5291,15
756,6,12,1113,38,4581,15
759,6,13,4830,50,11245,15
762,6,14,1596,84,5104,15
765,6,15,5163,,,15
768,6,16,1794,,,15
771,6,17,285,,,15
774,6,18,1908,,,15
777,6,19,1083,,,15
780,6,20,1014,,,15
783,6,21,4260,,,15
786,6,22,3837,,,15
789,6,23,4575,,,15
792,6,24,4662,,,15
795,6,25,960,,,15
798,6,26,153,,,15
801,6,27,1728,,,15
804,6,28,1500,,,15
807,6,29,702,,,15
810,6,30,4716,,,15
813,6,31,3273,,,15
816,6,32,3651,,,15
819,6,33,4614,,,15
822,6,34,2838,,,15
825,6,35,4218,,,15
828,6,36,5562,,,15
831,6,37,4872,,,15
834,6,38,3438,,,15
837,6,39,519,,,15
840,6,40,3747,,,15
843,6,41,1275,,,15
846,6,42,2922,,,15
849,6,43,2469,,,15
852,6,44,138,,,15
855,6,45,2250,,,15
858,6,46,4056,,,15
861,6,47,2856,,,15
864,6,48,4656,,,15
867,6,49,4632,,,15
870,6,50,1119,,,15
873,6,51,2802,,,15
876,6,52,3633,,,15
879,6,53,3921,,,15
882,6,54,4239,,,15
885,6,55,5646,,,15
888,6,56,4551,,,15
891,6,57,4275,,,15
894,6,58,4059,,,15
897,6,59,393,,,15
900,6,60,1611,,,15
903,6,61,4179,,,15
906,6,62,1767,,,15
909,6,63,4359,,,15
912,6,64,1998,,,15
915,6,65,27,,,15
918,6,66,5157,,,15
921,6,67,4722,,,15
924,6,68,2520,,,15
927,6,69,2748,,,15
930,6,70,753,,,15
933,6,71,3915,,,15
936,6,72,3141,,,15
939,6,73,654,,,15
942,6,74,303,,,15
945,6,75,3387,,,15
948,6,76,2304,,,15
951,6,77,297,,,15
954,6,78,2961,,,15
957,6,79,1497,,,15
960,6,80,2589,,,15
963,6,81,945,,,15
966,6,82,357,,,15
969,6,83,915,,,15
972,6,84,1704,,,15
975,6,85,2595,,,15
978,6,86,483,,,15
981,6,87,2790,,,15
984,6,88,4290,,,15
987,6,89,3789,,,15
990,6,90,4506,,,15
993,6,91,312,,,15
996,6,92,4515,,,15
999,6,93,3144,,,15
1002,6,94,774,,,15
1005,6,95,2694,,,15
1008,6,96,930,,,15
1011,6,97,87,,,15
1014,6,98,834,,,15
1017,6,99,3699,,,15
1020,6,100,1071,,,15
1023,6,101,2010,,,15
1026,6,102,3465,,,15
1029,6,103,81,,,15
1032,6,104,3852,,,15
1035,6,105,3069,,,15
1038,6,106,3960,,,15
1041,6,107,1176,,,15
1044,6,108,5112,,,15
1047,6,109,4254,,,15
1050,6,110,3354,,,15
1053,6,111,318,,,15
1056,6,112,1641,,,15
1059,6,113,4014,,,15
1062,6,114,1746,,,15
1065,6,115,3612,,,15
1068,6,116,5721,,,15
1071,6,117,4329,,,15
1074,6,118,3774,,,15
1077,6,119,786,,,15
1080,6,120,4821,,,15
1083,6,121,2481,,,15
1086,6,122,2229,,,15
1089,6,123,2034,,,15
1092,6,124,4914,,,15
1095,6,125,5895,,,15
1098,6,126,3432,,,15
1101,6,127,3390,,,15
1104,6,128,351,,,15
1107,6,129,936,,,15
1110,6,130,2859,,,15
1113,6,131,5904,,,15
1116,6,132,225,,,15
1119,6,133,4581,,,15
1122,6,134,2538,,,15
1125,6,135,2211,,,15
1128,6,136,3177,,,15
1131,6,137,4353,,,15
1134,6,138,5076,,,15
1137,6,139,5580,,,15
1140,6,140,135,,,15
1143,6,141,2601,,,15
1146,6,142,342,,,15
1149,6,143,3876,,,15
1152,6,144,48,,,15
1155,6,145,729,,,15
1158,6,146,4791,,,15
1161,6,147,5073,,,15
1164,6,148,1560,,,15
1167,6,149,3786,,,15
1170,6,150,4617,,,15
1173,6,151,3054,,,15
1176,6,152,2607,,,15
1179,6,153,2931,,,15
1182,6,154,1281,,,15
1185,6,155,4929,,,15
1188,6,156,2982,,,15
1191,6,157,1416,,,15
1194,6,158,1905,,,15
1197,6,159,1569,,,15
1200,6,160,1542,,,15
1203,6,161,5931,,,15
1206,6,162,4920,,,15
1209,6,163,3129,,,15
1212,6,164,627,,,15
1215,6,165,576,,,15
1218,6,166,2178,,,15
1221,6,167,1917,,,15
1224,6,168,1605,,,15
1227,6,169,417,,,15
1230,6,170,921,,,15
1233,6,171,3582,,,15
1236,6,172,4659,,,15
1239,6,173,4113,,,15
1242,6,174,1092,,,15
1245,6,175,5127,,,15
1248,6,176,1539,,,15
1251,6,177,4161,,,15
1254,6,178,5301,,,15
1257,6,179,4566,,,15
1260,6,180,1137,,,15
1263,6,181,5499,,,15
1266,6,182,1629,,,15
1269,6,183,1869,,,15
1272,6,184,660,,,15
1275,6,185,5226,,,15
1278,6,186,4911,,,15
1281,6,187,1317,,,15
1284,6,188,5682,,,15
1287,6,189,3687,,,15
1290,6,190,1308,,,15
1293,6,191,1305,,,15
1296,6,192,387,,,15
1299,6,193,2919,,,15
1302,6,194,5628,,,15
1305,6,195,3102,,,15
1308,6,196,3027,,,15
1311,6,197,2799,,,15
1314,6,198,1299,,,15
1317,6,199,1959,,,15
1320,6,200,4767,,,15
1323,6,201,990,,,15
1326,6,202,2880,,,15
1329,6,203,1530,,,15
1332,6,204,384,,,15
1335,6,205,1254,,,15
1338,6,206,4554,,,15
1341,6,207,2697,,,15
1344,6,208,1953,,,15
1347,6,209,5847,,,15
1350,6,210,4866,,,15
1353,6,211,3501,,,15
1356,6,212,1683,,,15
1359,6,213,1221,,,15
1362,6,214,1389,,,15
1365,6,215,3801,,,15
1368,6,216,408,,,15
1371,6,217,195,,,15
1374,6,218,1446,,,15
1377,6,219,90,,,15
1380,6,220,4023,,,15
1383,6,221,2061,,,15
1386,6,222,4416,,,15
1389,6,223,1341,,,15
1392,6,224,4761,,,15
1395,6,225,1848,,,15
1398,6,226,4839,,,15
1401,6,227,3135,,,15
1404,6,228,5589,,,15
1407,6,229,4869,,,15
1410,6,230,3723,,,15
1413,6,231,381,,,15
1416,6,232,3351,,,15
1419,6,233,4149,,,15
1422,6,234,5178,,,15
1425,6,235,3264,,,15
1428,6,236,3543,,,15
1431,6,237,3006,,,15
1434,6,238,5199,,,15
1437,6,239,1941,,,15
1440,6,240,21,,,15
1443,9,1,438,52,4164,33
1446,9,2,3345,45,3222,33
1449,9,3,297,12,2183,33
1452,9,4,3009,13,5207,33
1455,9,5,2379,0,2830,33
1458,9,6,5631,62,2302,33
1461,9,7,4911,33,1990,33
1464,9,8,5238,97,3087,33
1467,9,9,1140,0,2638,33
1470,9,10,3414,69,2510,33
1473,9,11,4404,24,2166,33
1476,9,12,3747,0,2655,33
1479,9,13,4431,28,2094,33
1482,9,14,5796,66,2391,33
1485,9,15,4179,49,3150,33
1488,9,16,2679,0,3791,33
1491,9,17,1287,54,3086,33
1494,9,18,4509,16,3679,33
1497,9,19,1992,17,3150,33
1500,9,20,1110,19,1559,33
1503,9,21,4929,52,4447,33
1506,9,22,240,52,3614,33
1509,9,23,4950,47,1991,33
1512,9,24,3513,83,1886,33
1515,9,25,3825,1,2055,33
1518,9,26,2601,2,2175,33
1521,9,27,123,4,1816,33
1524,9,28,2073,1,3485,33
1527,9,29,4680,30,2198,33
1530,9,30,3420,35,1671,33
1533,9,31,102,29,2670,33
1536,9,32,1887,1,2246,33
1539,9,33,585,36,4654,33
1542,9,34,3549,63,2174,33
1545,9,35,3927,0,2903,33
1548,9,36,4617,33,2118,33
1551,9,37,4488,58,2039,33
1554,9,38,1566,0,2151,33
1557,9,39,1659,44,2446,33
1560,9,40,5886,67,3742,33
1563,9,41,3525,52,3911,33
1566,9,42,3318,32,2166,33
1569,9,43,1449,0,2302,33
1572,9,44,2307,0,2014,33
1575,9,45,5829,57,2159,33
1578,9,46,1707,53,2006,33
1581,9,47,1101,2,2015,33
1584,9,48,459,100,2223,33
1587,9,49,4272,0,2486,33
1590,9,50,96,0,2207,33
1593,9,51,4614,55,2214,33
1596,9,52,2403,0,2566,33
1599,9,53,4251,0,2151,33
1602,9,54,3882,0,2078,33
1605,9,55,1365,33,4230,33
1608,9,56,1794,73,3358,33
1611,9,57,3663,32,1942,33
1614,9,58,1872,1,2975,33
1617,9,59,5856,63,2327,33
1620,9,60,3669,61,2551,33
1623,9,61,1932,0,2094,33
1626,9,62,3837,0,2119,33
1629,9,63,3192,90,3918,33
1632,9,64,4323,0,2463,33
1635,9,65,564,29,1678,33
1638,9,66,342,3,2583,33
1641,9,67,2976,30,2606,33
1644,9,68,444,53,2687,33
1647,9,69,5244,55,2174,33
1650,9,70,468,0,2295,33
1653,9,71,4551,58,3991,33
1656,9,72,5703,66,2582,33
1659,9,73,3624,52,2743,33
1662,9,74,1758,85,2694,33
1665,9,75,3444,100,2391,33
1668,9,76,4941,93,2287,33
1671,9,77,5802,63,1712,33
1674,9,78,1968,0,2022,33
1677,9,79,630,55,2927,33
1680,9,80,2262,0,2390,33
1683,9,81,4980,67,2463,33
1686,9,82,4317,11,3238,33
1689,9,83,4560,90,2103,33
1692,9,84,1464,11,2086,33
1695,9,85,5643,62,2271,33
1698,9,86,1908,34,2238,33
1701,9,87,1422,54,2086,33
1704,9,88,1704,53,2342,33
1707,9,89,5868,0,3159,33
1710,9,90,2319,0,2334,33
1713,9,91,2181,45,2135,33
1716,9,92,1032,55,2150,33
1719,9,93,3225,19,2294,33
1722,9,94,4209,65,2350,33
1725,9,95,1098,53,3590,33
1728,9,96,3312,81,4151,33
1731,9,97,4581,60,2622,33
1734,9,98,4245,0,2647,33
1737,9,99,642,33,6038,33
1740,9,100,1167,28,1838,33
1743,9,101,4497,58,1647,33
1746,9,102,3021,55,2607,33
1749,9,103,5478,53,2711,33
1752,9,104,990,51,1982,33
1755,9,105,3390,53,3598,33
1758,9,106,3597,59,2455,33
1761,9,107,1584,100,2174,33
1764,9,108,3705,69,1823,33
1767,9,109,894,33,2190,33
1770,9,110,3879,0,2031,33
1773,9,111,4092,54,1983,33
1776,9,112,1971,0,1831,33
1779,9,113,3858,36,2046,33
1782,9,114,4734,60,1614,33
1785,9,115,2577,39,1430,33
1788,9,116,5496,64,2159,33
1791,9,117,549,45,2422,33
1794,9,118,2256,17,2343,33
1797,9,119,5004,91,2671,33
1800,9,120,5091,55,1902,33
1803,9,121,4143,23,1775,33
1806,9,122,3054,46,2614,33
1809,9,123,5163,46,2966,33
1812,9,124,669,18,2791,33
1815,9,125,4887,53,2174,33
1818,9,126,4227,16,2703,33
1821,9,127,3834,0,2861,33
1824,9,128,1314,36,2671,33
1827,9,129,1296,28,2238,33
1830,9,130,1545,0,3950,33
1833,9,131,4635,56,1727,33
1836,9,132,3366,52,1694,33
1839,9,133,2151,0,1958,33
1842,9,134,3654,53,1511,33
1845,9,135,2814,21,1918,33
1848,9,136,3948,33,1780,33
1851,9,137,5517,56,1583,33
1854,9,138,3735,0,2023,33
1857,9,139,2880,68,1790,33
1860,9,140,909,54,2190,33
1863,9,141,3084,55,15894,33
1866,9,142,339,46,2318,33
1869,9,143,5850,68,3054,33
1872,9,144,4440,62,2150,33
1875,9,145,4461,56,2021,33
1878,9,146,2901,54,2870,33
1881,9,147,1563,90,3151,33
1884,9,148,3258,70,1775,33
1887,9,149,3237,66,1590,33
1890,9,150,3741,0,1999,33
1893,9,151,2757,0,2743,33
1896,9,152,834,0,2310,33
1899,9,153,3813,0,1959,33
1902,9,154,5766,63,3638,33
1905,9,155,3267,67,1639,33
1908,9,156,219,0,2126,33
1911,9,157,2373,0,1871,33
1914,9,158,4416,58,1878,33
1917,9,159,4524,63,2246,33
1920,9,160,2859,35,3092,33
1923,9,161,3198,100,2270,33
1926,9,162,4839,77,2822,33
1929,9,163,3633,28,1918,33
1932,9,164,618,8,1894,33
1935,9,165,5583,65,2223,33
1938,9,166,801,4,1678,33
1941,9,167,2820,36,2734,33
1944,9,168,3603,54,3119,33
1947,9,169,3429,57,1470,33
1950,9,170,5571,61,1639,33
1953,9,171,3792,0,2039,33
1956,9,172,276,19,2103,33
1959,9,173,1527,58,7454,33
1962,9,174,3270,77,2062,33
1965,9,175,2721,0,2150,33
1968,9,176,2292,0,1911,33
1971,9,177,5847,64,1886,33
1974,9,178,255,85,2647,33
1977,9,179,4326,0,1878,33
1980,9,180,4818,57,2343,33
1983,9,181,1686,54,1766,33
1986,9,182,1212,40,1894,33
1989,9,183,3852,31,1814,33
1992,9,184,3492,68,1623,33
1995,9,185,2883,40,15103,33
1998,9,186,1731,87,2598,33
2001,9,187,4338,30,2582,33
2004,9,188,1215,57,4423,33
2007,9,189,150,0,4311,33
2010,9,190,4044,0,3198,33
2013,9,191,5313,64,2894,33
2016,9,192,1578,79,6655,33
2019,9,193,606,34,4678,33
2022,9,194,2523,17,2094,33
2025,9,195,513,60,2230,33
2028,9,196,2907,64,2822,33
2031,9,197,4785,69,5278,33
2034,9,198,4380,0,3119,33
2037,9,199,612,31,4799,33
2040,9,200,267,71,1694,33
2043,9,201,891,77,2974,33
2046,9,202,3087,59,9198,33
2049,9,203,4110,0,2758,33
2052,9,204,3114,72,2087,33
2055,9,205,3282,44,4055,33
2058,9,206,4926,41,4630,33
2061,9,207,5472,54,2182,33
2064,9,208,4101,1,2470,33
2067,9,209,4173,10,1719,33
2070,9,210,900,73,3574,33
2073,9,211,399,3,3502,33
2076,9,212,5085,71,1670,33
2079,9,213,4932,20,17870,33
2082,9,214,5124,41,31718,33
2085,9,215,5673,42,6382,33
2088,9,216,3063,40,4894,33
2091,9,217,4218,0,8142,33
2094,9,218,1830,62,2174,33
2097,9,219,3849,1,3558,33
2100,9,220,1692,70,2447,33
2103,9,221,4467,59,3054,33
2106,9,222,3219,76,2558,33
2109,9,223,1752,65,6150,33
2112,9,224,3195,59,1630,33
2115,9,225,4428,34,5070,33
2118,9,226,1776,63,2430,33
2121,9,227,5595,64,2126,33
2124,9,228,684,0,2070,33
2127,9,229,258,26,23198,33
2130,9,230,5334,58,3886,33
2133,9,231,1761,56,1701,33
2136,9,232,3639,55,1911,33
2139,9,233,2052,38,1566,33
2142,9,234,1698,56,1751,33
2145,9,235,3438,57,19310,33
2148,9,236,2490,29,5381,33
2151,9,237,4296,0,2703,33
2154,9,238,3036,59,2254,33
2157,9,239,63,57,2238,33
2160,9,240,2109,6,1695,33
2163,12,1,4200,14,7935,36
2166,12,2,1545,59,4320,36
2169,12,3,2697,37,4320,36
2172,12,4,1476,66,7860,36
2175,12,5,1080,74,3878,36
2178,12,6,2505,36,3373,36
2181,12,7,2616,71,6623,36
2184,12,8,1959,23,2790,36
2187,12,9,5565,81,6597,36
2190,12,10,1500,89,4308,36
2193,12,11,2223,25,29365,36
2196,12,12,3693,70,3963,36
2199,12,13,2349,41,7430,36
2202,12,14,1059,90,5061,36
2205,12,15,3990,19,3724,36
2208,12,16,3621,41,2722,36
2211,12,17,4779,82,4969,36
2214,12,18,5856,75,3084,36
2217,12,19,5664,69,2392,36
2220,12,20,5283,59,13107,36
2223,12,21,3054,67,5321,36
2226,12,22,5208,80,3465,36
2229,12,23,5571,69,5424,36
2232,12,24,573,81,5076,36
2235,12,25,465,23,14659,36
2238,12,26,4266,4,3607,36
2241,12,27,1485,60,2882,36
2244,12,28,2871,77,7114,36
2247,12,29,1926,26,2634,36
2250,12,30,30,57,3262,36
2253,12,31,3861,29,1961,36
2256,12,32,1785,99,4519,36
2259,12,33,4656,30,3864,36
2262,12,34,4386,11,2008,36
2265,12,35,1755,52,6510,36
2268,12,36,2181,57,2282,36
2271,12,37,3384,67,10555,36
2274,12,38,3057,78,2914,36
2277,12,39,267,69,4212,36
2280,12,40,2241,64,5394,36
2283,12,41,2841,60,3901,36
2286,12,42,5301,83,3774,36
2289,12,43,516,33,2833,36
2292,12,44,4917,36,3923,36
2295,12,45,1554,73,2859,36
2298,12,46,2823,66,9805,36
2301,12,47,5616,59,2796,36
2304,12,48,4479,83,4842,36
2307,12,49,5511,22,12380,36
2310,12,50,279,89,3389,36
2313,12,51,4788,64,5469,36
2316,12,52,2448,23,11755,36
2319,12,53,5340,62,3715,36
2322,12,54,651,42,2785,36
2325,12,55,4260,19,2421,36
2328,12,56,978,70,10890,36
2331,12,57,3945,62,3321,36
2334,12,58,1584,59,9925,36
2337,12,59,462,39,4920,36
2340,12,60,498,60,3189,36
2343,12,61,3405,69,2335,36
2346,12,62,606,32,2641,36
2349,12,63,5484,58,5300,36
2352,12,64,5796,69,2184,36
2355,12,65,2709,70,3526,36
2358,12,66,3672,46,3671,36
2361,12,67,12,74,4417,36
2364,12,68,3456,62,3036,36
2367,12,69,429,35,2786,36
2370,12,70,3255,70,3279,36
2373,12,71,2940,76,4742,36
2376,12,72,2628,39,4729,36
2379,12,73,5091,27,3659,36
2382,12,74,1350,41,5030,36
2385,12,75,5922,62,1903,36
2388,12,76,5070,57,2796,36
2391,12,77,4440,68,2688,36
2394,12,78,1761,62,4354,36
2397,12,79,657,21,3396,36
2400,12,80,3735,36,9573,36
2403,12,81,4644,76,3496,36
2406,12,82,5934,39,2625,36
2409,12,83,438,57,3479,36
2412,12,84,4611,66,114113,36
2415,12,85,4161,16,1969,36
2418,12,86,1227,56,2604,36
2421,12,87,4689,64,2906,36
2424,12,88,5448,34,2959,36
2427,12,89,2391,58,1893,36
2430,12,90,4428,82,4742,36
2433,12,91,1599,41,3603,36
2436,12,92,2049,25,2106,36
2439,12,93,4581,40,1911,36
2442,12,94,810,58,3274,36
2445,12,95,849,66,2460,36
2448,12,96,2805,71,6614,36
2451,12,97,4248,66,3956,36
2454,12,98,5577,35,4566,36
2457,12,99,4605,34,2803,36
2460,12,100,2499,62,2422,36
2463,12,101,3876,37,2513,36
2466,12,102,1077,69,3340,36
2469,12,103,2220,28,4146,36
2472,12,104,2829,42,4224,36
2475,12,105,1305,73,5832,36
2478,12,106,3561,61,7693,36
2481,12,107,4344,55,3152,36
2484,12,108,1812,50,5981,36
2487,12,109,4998,73,3634,36
2490,12,110,5841,82,6353,36
2493,12,111,2454,34,3207,36
2496,12,112,5526,64,2386,36
2499,12,113,4707,76,3287,36
2502,12,114,1581,32,3134,36
2505,12,115,3144,63,4392,36
2508,12,116,3258,44,2270,36
2511,12,117,5826,35,3057,36
2514,12,118,1488,69,4671,36
2517,12,119,4758,65,2477,36
2520,12,120,2799,75,17942,36
2523,12,121,270,33,19687,36
2526,12,122,2676,75,3644,36
2529,12,123,3339,60,3020,36
2532,12,124,5319,59,4891,36
2535,12,125,738,29,1960,36
2538,12,126,2154,74,1865,36
2541,12,127,468,35,2981,36
2544,12,128,4119,22,1915,36
2547,12,129,2856,74,9803,36
2550,12,130,3966,84,4683,36
2553,12,131,933,26,2982,36
2556,12,132,1521,65,2098,36
2559,12,133,5604,90,3480,36
2562,12,134,1506,72,2333,36
2565,12,135,531,58,4300,36
2568,12,136,216,61,2799,36
2571,12,137,4635,73,3391,36
2574,12,138,1578,64,3788,36
2577,12,139,882,62,3600,36
2580,12,140,5592,56,2451,36
2583,12,141,4245,64,4784,36
2586,12,142,1737,66,3168,36
2589,12,143,4086,58,3071,36
2592,12,144,3333,78,5041,36
2595,12,145,858,74,2660,36
2598,12,146,4953,89,4566,36
2601,12,147,5832,61,3954,36
2604,12,148,4683,80,6052,36
2607,12,149,4488,68,3900,36
2610,12,150,5730,75,2532,36
2613,12,151,3696,95,2874,36
2616,12,152,3090,44,5008,36
2619,12,153,5397,61,4687,36
2622,12,154,3675,76,2885,36
2625,12,155,5049,66,3086,36
2628,12,156,1200,74,16491,36
2631,12,157,4692,77,30429,36
2634,12,158,258,66,2681,36
2637,12,159,1770,71,2318,36
2640,12,160,549,47,2856,36
2643,12,161,5034,74,17264,36
2646,12,162,3537,91,3658,36
2649,12,163,2112,59,2539,36
2652,12,164,2757,79,2659,36
2655,12,165,2226,34,2313,36
2658,12,166,2733,82,23115,36
2661,12,167,4665,72,1970,36
2664,12,168,333,27,3938,36
2667,12,169,1752,56,4263,36
2670,12,170,1272,68,15996,36
2673,12,171,4686,36,5844,36
2676,12,172,1665,80,3553,36
2679,12,173,771,60,2770,36
2682,12,174,1413,26,2537,36
2685,12,175,3888,38,3671,36
2688,12,176,5376,63,2667,36
2691,12,177,3012,74,4267,36
2694,12,178,3156,70,2673,36
2697,12,179,2730,78,3998,36
2700,12,180,5418,90,3674,36
2703,12,181,2442,20,7354,36
2706,12,182,3501,56,2099,36
2709,12,183,3228,60,3712,36
2712,12,184,39,77,2965,36
2715,12,185,4326,25,2021,36
2718,12,186,3393,68,4551,36
2721,12,187,1974,0,4492,36
2724,12,188,2415,23,2633,36
2727,12,189,150,54,3254,36
2730,12,190,3309,60,2565,36
2733,12,191,1071,75,3332,36
2736,12,192,4437,61,4836,36
2739,12,193,2637,78,9524,36
2742,12,194,3657,62,3417,36
2745,12,195,2445,93,8518,36
2748,12,196,3114,60,8273,36
2751,12,197,4401,80,2776,36
2754,12,198,351,37,4516,36
2757,12,199,2178,56,2420,36
2760,12,200,4242,66,3034,36
2763,12,201,3117,41,4322,36
2766,12,202,5328,81,4827,36
2769,12,203,4380,39,8839,36
2772,12,204,5619,71,8566,36
2775,12,205,3774,12,3915,36
2778,12,206,2607,32,2320,36
2781,12,207,909,37,4300,36
2784,12,208,1650,59,2033,36
2787,12,209,1686,64,3795,36
2790,12,210,2379,63,4900,36
2793,12,211,3480,60,2888,36
2796,12,212,1800,77,3791,36
2799,12,213,1824,33,3103,36
2802,12,214,3951,36,4296,36
2805,12,215,2595,26,4645,36
2808,12,216,5148,32,5675,36
2811,12,217,543,81,3736,36
2814,12,218,1935,40,5124,36
2817,12,219,2307,56,3668,36
2820,12,220,4092,59,3105,36
2823,12,221,4176,38,3995,36
2826,12,222,3729,35,2284,36
2829,12,223,1962,37,2014,36
2832,12,224,2604,30,2504,36
2835,12,225,780,82,5697,36
2838,12,226,873,59,4163,36
2841,12,227,4782,66,2211,36
2844,12,228,3024,91,4327,36
2847,12,229,4509,69,5137,36
2850,12,230,2565,37,5474,36
2853,12,231,1134,77,7500,36
2856,12,232,2880,83,3821,36
2859,12,233,5502,57,2653,36
2862,12,234,2550,35,3503,36
2865,12,235,1815,41,7084,36
2868,12,236,5064,60,4107,36
2871,12,237,4752,64,10745,36
2874,12,238,5673,83,5408,36
2877,12,239,2265,38,2589,36
2880,12,240,5427,75,2724,36
2883,15,1,5358,41,3886,39
2886,15,2,5304,40,2931,39
2889,15,3,273,10,3002,39
2892,15,4,2997,8,2842,39
2895,15,5,4449,81,2862,39
2898,15,6,3894,96,3007,39
2901,15,7,288,4,3422,39
2904,15,8,3513,15,3870,39
2907,15,9,5172,75,3197,39
2910,15,10,3849,36,4673,39
2913,15,11,3651,33,3078,39
2916,15,12,3297,64,3558,39
2919,15,13,1326,27,3511,39
2922,15,14,1842,34,3041,39
2925,15,15,2886,30,5206,39
2928,15,16,3237,59,4553,39
2931,15,17,5859,57,4809,39
2934,15,18,5418,38,8397,39
2937,15,19,3924,64,3435,39
2940,15,20,4356,66,2891,39
2943,15,21,1353,34,3539,39
2946,15,22,3201,36,2273,39
2949,15,23,4800,23,3372,39
2952,15,24,4896,66,4725,39
2955,15,25,5664,50,9862,39
2958,15,26,3747,84,2598,39
2961,15,27,1596,80,2477,39
2964,15,28,1947,83,3027,39
2967,15,29,5331,72,2464,39
2970,15,30,4353,59,15824,39
2973,15,31,4947,36,2956,39
2976,15,32,1020,35,3360,39
2979,15,33,1509,26,2685,39
2982,15,34,1716,39,2503,39
2985,15,35,1719,17,2683,39
2988,15,36,4332,35,3925,39
2991,15,37,1668,64,56405,39
2994,15,38,5877,43,2588,39
2997,15,39,4650,82,2302,39
3000,15,40,4290,83,1649,39
3003,15,41,2160,94,2229,39
3006,15,42,2991,44,3001,39
3009,15,43,138,15,2474,39
3012,15,44,4935,80,2996,39
3015,15,45,5523,99,4246,39
3018,15,46,1347,7,3252,39
3021,15,47,1206,57,2346,39
3024,15,48,5424,41,2382,39
3027,15,49,3774,50,7123,39
3030,15,50,1968,23,5827,39
3033,15,51,1881,80,5705,39
3036,15,52,4746,95,3226,39
3039,15,53,2499,13,3208,39
3042,15,54,4413,4,2720,39
3045,15,55,1338,3,2799,39
3048,15,56,4602,4,3960,39
3051,15,57,162,2,15600,39
3054,15,58,1323,13,2492,39
3057,15,59,3750,18,3315,39
3060,15,60,2277,71,2232,39
3063,15,61,5112,27,2167,39
3066,15,62,2235,74,1835,39
3069,15,63,3762,84,2085,39
3072,15,64,576,16,1697,39
3075,15,65,3318,16,2931,39
3078,15,66,3966,11,2738,39
3081,15,67,1107,16,2730,39
3084,15,68,2070,13,2384,39
3087,15,69,1302,15,1848,39
3090,15,70,18,60,2513,39
3093,15,71,4197,94,5729,39
3096,15,72,1440,76,7925,39
3099,15,73,3021,33,7595,39
3102,15,74,3189,62,2554,39
3105,15,75,4809,60,2146,39
3108,15,76,3216,31,2209,39
3111,15,77,4050,87,2392,39
3114,15,78,4743,86,2688,39
3117,15,79,5373,76,2321,39
3120,15,80,3744,32,2359,39
3123,15,81,3432,76,37942,39
3126,15,82,1452,22,4634,39
3129,15,83,4110,77,2527,39
3132,15,84,513,82,2612,39
3135,15,85,5295,82,2607,39
3138,15,86,4131,37,3647,39
3141,15,87,2379,33,2068,39
3144,15,88,1938,100,2402,39
3147,15,89,4488,23,2108,39
3150,15,90,336,35,2380,39
3153,15,91,906,36,2066,39
3156,15,92,3090,29,1912,39
3159,15,93,4638,35,2458,39
3162,15,94,1470,36,1969,39
3165,15,95,4242,73,2531,39
3168,15,96,4779,62,3914,39
3171,15,97,5496,66,1922,39
3174,15,98,5586,63,2788,39
3177,15,99,1221,79,10720,39
3180,15,100,3057,73,1920,39
3183,15,101,219,74,1669,39
3186,15,102,5301,78,1672,39
3189,15,103,3231,74,1578,39
3192,15,104,630,40,1705,39
3195,15,105,3495,38,1563,39
3198,15,106,3927,100,2742,39
3201,15,107,4704,93,1875,39
3204,15,108,2121,100,1723,39
3207,15,109,4797,74,1660,39
3210,15,110,5337,31,1541,39
3213,15,111,750,76,1729,39
3216,15,112,48,31,1473,39
3219,15,113,5709,75,2318,39
3222,15,114,3039,33,1440,39
3225,15,115,1905,86,1572,39
3228,15,116,306,74,1439,39
3231,15,117,3858,78,1533,39
3234,15,118,2451,82,4176,39
3237,15,119,5691,92,1906,39
3240,15,120,4977,72,2383,39
3243,15,121,4149,81,1592,39
3246,15,122,4866,26,2142,39
3249,15,123,2757,27,2070,39
3252,15,124,1710,31,3026,39
3255,15,125,2025,100,2695,39
3258,15,126,4614,75,1963,39
3261,15,127,3402,19,1512,39
3264,15,128,2130,100,3097,39
3267,15,129,5880,68,1600,39
3270,15,130,5142,38,6956,39
3273,15,131,3336,79,2471,39
3276,15,132,5031,96,1873,39
3279,15,133,2529,83,5604,39
3282,15,134,2937,69,3971,39
3285,15,135,1248,17,1789,39
3288,15,136,1545,11,1843,39
3291,15,137,1647,5,1922,39
3294,15,138,432,28,12071,39
3297,15,139,1209,25,2094,39
3300,15,140,1575,27,1375,39
3303,15,141,1305,22,1357,39
3306,15,142,5247,58,1931,39
3309,15,143,5856,66,1981,39
3312,15,144,4440,68,2269,39
3315,15,145,3756,100,2009,39
3318,15,146,2928,25,2873,39
3321,15,147,5346,27,2476,39
3324,15,148,4701,18,1755,39
3327,15,149,1566,20,3302,39
3330,15,150,5622,25,5148,39
3333,15,151,1728,32,1965,39
3336,15,152,678,27,1688,39
3339,15,153,1023,17,1677,39
3342,15,154,3594,16,3289,39
3345,15,155,39,30,4619,39
3348,15,156,2058,39,4038,39
3351,15,157,2604,26,3195,39
3354,15,158,282,29,2001,39
3357,15,159,2910,23,1640,39
3360,15,160,2589,20,1622,39
3363,15,161,4794,15,1770,39
3366,15,162,3837,84,1629,39
3369,15,163,4590,71,1395,39
3372,15,164,4962,29,1559,39
3375,15,165,5823,65,1380,39
3378,15,166,4536,64,1775,39
3381,15,167,4512,74,1784,39
3384,15,168,285,70,1564,39
3387,15,169,1158,70,1458,39
3390,15,170,45,71,2133,39
3393,15,171,81,74,1466,39
3396,15,172,3957,77,2158,39
3399,15,173,2916,82,1406,39
3402,15,174,2064,81,1446,39
3405,15,175,3405,79,1897,39
3408,15,176,3327,81,2311,39
3411,15,177,3264,85,2416,39
3414,15,178,1995,86,1698,39
3417,15,179,585,85,2161,39
3420,15,180,2958,84,2373,39
3423,15,181,2415,22,1895,39
3426,15,182,5436,69,2624,39
3429,15,183,2148,77,1531,39
3432,15,184,5769,81,1937,39
3435,15,185,1464,24,1569,39
3438,15,186,4218,23,1401,39
3441,15,187,3648,21,1415,39
3444,15,188,2400,22,1367,39
3447,15,189,2460,28,1378,39
3450,15,190,2976,84,1440,39
3453,15,191,5298,78,1704,39
3456,15,192,2115,89,1633,39
3459,15,193,846,85,2216,39
3462,15,194,5640,84,4002,39
3465,15,195,2031,87,3159,39
3468,15,196,4830,81,2155,39
3471,15,197,4176,,,39
3474,15,198,4221,,,39
3477,15,199,3315,,,39
3480,15,200,5400,,,39
3483,15,201,3546,,,39
3486,15,202,1815,,,39
3489,15,203,4848,,,39
3492,15,204,2244,,,39
3495,15,205,1593,,,39
3498,15,206,4554,,,39
3501,15,207,4551,,,39
3504,15,208,666,,,39
3507,15,209,3576,,,39
3510,15,210,5529,,,39
3513,15,211,2988,,,39
3516,15,212,4893,,,39
3519,15,213,1845,,,39
3522,15,214,54,,,39
3525,15,215,3738,,,39
3528,15,216,930,,,39
3531,15,217,36,,,39
3534,15,218,372,,,39
3537,15,219,1485,,,39
3540,15,220,504,,,39
3543,15,221,2880,,,39
3546,15,222,5421,,,39
3549,15,223,4812,,,39
3552,15,224,3759,,,39
3555,15,225,4530,,,39
3558,15,226,1491,,,39
3561,15,227,5184,,,39
3564,15,228,3771,,,39
3567,15,229,3342,,,39
3570,15,230,2676,,,39
3573,15,231,3729,,,39
3576,15,232,2892,,,39
3579,15,233,1188,,,39
3582,15,234,1056,,,39
3585,15,235,5949,,,39
3588,15,236,5067,,,39
3591,15,237,4956,,,39
3594,15,238,759,,,39
3597,15,239,2139,,,39
3600,15,240,2568,,,39
3603,18,1,4875,84,16288,21
3606,18,2,2415,50,6277,21
3609,18,3,5901,69,7173,21
3612,18,4,492,50,4561,21
3615,18,5,2967,67,6386,21
3618,18,6,1668,84,6402,21
3621,18,7,183,100,4674,21
3624,18,8,5676,50,4300,21
3627,18,9,5457,37,7338,21
3630,18,10,3693,84,4960,21
3633,18,11,2982,84,4564,21
3636,18,12,126,67,4314,21
3639,18,13,1614,69,5163,21
3642,18,14,447,50,5736,21
3645,18,15,4500,83,5857,21
3648,18,16,2457,33,9349,21
3651,18,17,3678,85,4593,21
3654,18,18,5544,66,6225,21
3657,18,19,4755,69,4285,21
3660,18,20,117,85,4806,21
3663,18,21,258,68,4566,21
3666,18,22,3768,51,5427,21
3669,18,23,2199,50,3443,21
3672,18,24,3213,83,5618,21
3675,18,25,2391,50,5213,21
3678,18,26,1041,83,10871,21
3681,18,27,5097,82,9456,21
3684,18,28,1575,67,4643,21
3687,18,29,1566,67,12061,21
3690,18,30,3936,66,4224,21
3693,18,31,5103,74,10845,21
3696,18,32,3342,88,6964,21
3699,18,33,1089,82,6040,21
3702,18,34,63,45,12746,21
3705,18,35,3987,50,4393,21
3708,18,36,2616,84,9548,21
3711,18,37,4149,50,6541,21
3714,18,38,1221,84,11358,21
3717,18,39,504,75,7486,21
3720,18,40,2028,50,3513,21
3723,18,41,1203,67,8094,21
3726,18,42,4917,64,5429,21
3729,18,43,2142,17,7135,21
3732,18,44,1938,26,5791,21
3735,18,45,528,79,19730,21
3738,18,46,216,67,5774,21
3741,18,47,90,50,2957,21
3744,18,48,1683,67,9028,21
3747,18,49,1740,55,6509,21
3750,18,50,2643,23,6862,21
3753,18,51,3387,33,5095,21
3756,18,52,294,32,4034,21
3759,18,53,432,79,11394,21
3762,18,54,3570,69,5876,21
3765,18,55,1071,40,4990,21
3768,18,56,5808,84,8985,21
3771,18,57,1011,45,5768,21
3774,18,58,5454,68,5054,21
3777,18,59,495,64,6477,21
3780,18,60,4863,79,6943,21
3783,18,61,5709,67,7167,21
3786,18,62,4473,50,5581,21
3789,18,63,3384,84,8934,21
3792,18,64,3183,45,6361,21
3795,18,65,5127,88,4974,21
3798,18,66,1869,17,4346,21
3801,18,67,4008,38,3734,21
3804,18,68,2151,38,4062,21
3807,18,69,963,77,10095,21
3810,18,70,5220,76,5792,21
3813,18,71,1017,50,6582,21
3816,18,72,2604,35,16039,21
3819,18,73,1347,73,6526,21
3822,18,74,1647,78,6065,21
3825,18,75,2340,41,4347,21
3828,18,76,4314,39,5071,21
3831,18,77,1584,73,6251,21
3834,18,78,2154,67,7660,21
3837,18,79,2823,55,5117,21
3840,18,80,2841,84,4201,21
3843,18,81,4398,55,4121,21
3846,18,82,2388,36,4749,21
3849,18,83,5301,69,5730,21
3852,18,84,5184,68,5328,21
3855,18,85,5511,41,4597,21
3858,18,86,4851,67,5906,21
3861,18,87,615,68,7275,21
3864,18,88,2673,50,3864,21
3867,18,89,3672,34,5248,21
3870,18,90,4071,17,4494,21
3873,18,91,363,84,5547,21
3876,18,92,5907,50,8202,21
3879,18,93,1473,57,22612,21
3882,18,94,2514,50,4690,21
3885,18,95,4728,50,4082,21
3888,18,96,5337,68,7012,21
3891,18,97,54,44,4768,21
3894,18,98,123,39,4504,21
3897,18,99,1377,67,5660,21
3900,18,100,3285,57,5465,21
3903,18,101,1185,51,23278,21
3906,18,102,915,57,5224,21
3909,18,103,4317,39,4612,21
3912,18,104,4926,66,6496,21
3915,18,105,1776,69,5513,21
3918,18,106,939,66,6547,21
3921,18,107,4278,18,4261,21
3924,18,108,42,84,4758,21
3927,18,109,456,18,4164,21
3930,18,110,4263,17,3404,21
3933,18,111,2697,40,5379,21
3936,18,112,2544,66,7962,21
3939,18,113,4185,17,6942,21
3942,18,114,2778,67,11814,21
3945,18,115,5523,50,4436,21
3948,18,116,684,32,6608,21
3951,18,117,1341,43,5291,21
3954,18,118,4578,57,7138,21
3957,18,119,4299,30,4092,21
3960,18,120,4887,69,4494,21
3963,18,121,663,34,21409,21
3966,18,122,3174,44,9169,21
3969,18,123,1818,69,11047,21
3972,18,124,1449,70,14718,21
3975,18,125,318,39,4275,21
3978,18,126,204,41,4597,21
3981,18,127,2943,83,6580,21
3984,18,128,3924,36,6617,21
3987,18,129,3684,81,6359,21
3990,18,130,5712,65,4692,21
3993,18,131,5124,84,31788,21
3996,18,132,2118,33,5304,21
3999,18,133,927,44,6879,21
4002,18,134,3399,67,6220,21
4005,18,135,2184,57,8409,21
4008,18,136,4782,68,4627,21
4011,18,137,3948,55,4753,21
4014,18,138,1557,67,4053,21
4017,18,139,5139,79,4321,21
4020,18,140,2346,26,3901,21
4023,18,141,1284,66,4502,21
4026,18,142,3888,57,6872,21
4029,18,143,2478,44,10172,21
4032,18,144,5673,70,5350,21
4035,18,145,1641,42,5123,21
4038,18,146,2430,39,4063,21
4041,18,147,1518,38,4744,21
4044,18,148,3468,33,4967,21
4047,18,149,48,63,4138,21
4050,18,150,5868,57,4833,21
4053,18,151,1269,50,7223,21
4056,18,152,4719,64,6537,21
4059,18,153,5661,57,5966,21
4062,18,154,3981,50,3669,21
4065,18,155,4410,57,4320,21
4068,18,156,60,72,4291,21
4071,18,157,2532,47,10706,21
4074,18,158,1458,62,5623,21
4077,18,159,480,34,5445,21
4080,18,160,471,33,4005,21
4083,18,161,1632,34,3085,21
4086,18,162,1884,31,4713,21
4089,18,163,564,30,4004,21
4092,18,164,4725,43,3271,21
4095,18,165,1743,74,4992,21
4098,18,166,15,43,2809,21
4101,18,167,4722,37,4036,21
4104,18,168,5631,67,4465,21
4107,18,169,1317,33,6660,21
4110,18,170,102,83,10679,21
4113,18,171,5442,60,3677,21
4116,18,172,4422,50,5680,21
4119,18,173,4665,43,23966,21
4122,18,174,4146,43,4540,21
4125,18,175,510,61,3135,21
4128,18,176,1542,35,5051,21
4131,18,177,351,34,9989,21
4134,18,178,2940,67,6983,21
4137,18,179,276,51,5513,21
4140,18,180,870,59,5351,21
4143,18,181,5682,59,4241,21
4146,18,182,5775,60,4275,21
4149,18,183,5148,82,5404,21
4152,18,184,1308,36,3252,21
4155,18,185,1326,16,7657,21
4158,18,186,966,65,6339,21
4161,18,187,2556,20,4885,21
4164,18,188,2367,16,4401,21
4167,18,189,3471,69,4803,21
4170,18,190,2400,83,4753,21
4173,18,191,5706,34,5263,21
4176,18,192,219,33,6580,21
4179,18,193,1653,84,4896,21
4182,18,194,2589,33,5334,21
4185,18,195,5163,33,7611,21
4188,18,196,2157,33,5322,21
4191,18,197,4476,31,3696,21
4194,18,198,1419,68,4276,21
4197,18,199,3972,27,5719,21
4200,18,200,1956,34,3940,21
4203,18,201,5100,43,5716,21
4206,18,202,3201,67,4642,21
4209,18,203,2232,62,4964,21
4212,18,204,1767,67,7166,21
4215,18,205,2958,78,4174,21
4218,18,206,4743,66,3867,21
4221,18,207,3612,78,3939,21
4224,18,208,549,63,4262,21
4227,18,209,1095,66,3917,21
4230,18,210,5931,18,5637,21
4233,18,211,3216,67,5916,21
4236,18,212,4929,34,5051,21
4239,18,213,3315,66,5717,21
4242,18,214,4677,67,5365,21
4245,18,215,321,84,5887,21
4248,18,216,4158,36,4130,21
4251,18,217,831,68,23166,21
4254,18,218,3003,67,5059,21
4257,18,219,369,34,7235,21
4260,18,220,4170,34,15622,21
4263,18,221,4596,50,6208,21
4266,18,222,3309,59,4182,21
4269,18,223,4731,36,7306,21
4272,18,224,3639,51,9070,21
4275,18,225,4230,19,4848,21
4278,18,226,195,80,16810,21
4281,18,227,5967,17,8682,21
4284,18,228,1863,15,5923,21
4287,18,229,5022,59,4884,21
4290,18,230,5037,68,4262,21
4293,18,231,306,50,4518,21
4296,18,232,756,76,7943,21
4299,18,233,5118,17,4665,21
4302,18,234,3567,66,7331,21
4305,18,235,978,64,4897,21
4308,18,236,4854,18,6142,21
4311,18,237,1824,67,14784,21
4314,18,238,2181,19,5073,21
4317,18,239,5115,66,4974,21
4320,18,240,2625,66,8666,21
4323,21,1,2067,50,26224,18
4326,21,2,1134,83,20634,18
4329,21,3,2259,50,19179,18
4332,21,4,4785,83,6161,18
4335,21,5,5577,51,6292,18
4338,21,6,4626,32,5838,18
4341,21,7,1542,32,7987,18
4344,21,8,3912,50,25403,18
4347,21,9,699,50,5739,18
4350,21,10,864,100,7941,18
4353,21,11,1515,50,5738,18
4356,21,12,2658,29,3640,18
4359,21,13,633,85,3917,18
4362,21,14,5823,82,4415,18
4365,21,15,2310,83,12526,18
4368,21,16,2877,75,5157,18
4371,21,17,4719,66,4153,18
4374,21,18,2562,38,10900,18
4377,21,19,1968,32,22553,18
4380,21,20,5151,65,6330,18
4383,21,21,984,26,7240,18
4386,21,22,4968,64,4426,18
4389,21,23,4575,52,6724,18
4392,21,24,1107,40,4421,18
4395,21,25,5835,74,4168,18
4398,21,26,528,82,3486,18
4401,21,27,2967,67,3746,18
4404,21,28,1569,54,4828,18
4407,21,29,1716,41,3861,18
4410,21,30,1110,63,2724,18
4413,21,31,4248,6,8884,18
4416,21,32,4734,72,3739,18
4419,21,33,4959,91,3764,18
4422,21,34,3828,8,5313,18
4425,21,35,1029,78,2983,18
4428,21,36,1854,87,4572,18
4431,21,37,4698,71,3290,18
4434,21,38,5466,66,5399,18
4437,21,39,2586,100,6634,18
4440,21,40,4779,77,3024,18
4443,21,41,2670,0,3589,18
4446,21,42,1863,13,8947,18
4449,21,43,3369,70,3639,18
4452,21,44,222,0,4736,18
4455,21,45,3213,59,3472,18
4458,21,46,1449,0,2614,18
4461,21,47,2904,59,4565,18
4464,21,48,2547,100,3249,18
4467,21,49,3231,75,5090,18
4470,21,50,4788,69,3062,18
4473,21,51,3741,10,3513,18
4476,21,52,1947,0,3517,18
4479,21,53,1746,90,3807,18
4482,21,54,3795,8,3976,18
4485,21,55,2331,27,11091,18
4488,21,56,5061,71,3279,18
4491,21,57,2037,80,5498,18
4494,21,58,4422,73,3508,18
4497,21,59,1209,71,3884,18
4500,21,60,5970,65,5364,18
4503,21,61,3105,71,3322,18
4506,21,62,5796,82,3002,18
4509,21,63,942,23,3374,18
4512,21,64,114,61,2554,18
4515,21,65,1794,100,4096,18
4518,21,66,3843,0,2872,18
4521,21,67,3984,12,4388,18
4524,21,68,1461,39,3742,18
4527,21,69,2808,42,3828,18
4530,21,70,1422,42,3532,18
4533,21,71,3063,95,5894,18
4536,21,72,1197,39,3098,18
4539,21,73,3723,37,2767,18
4542,21,74,2118,24,3277,18
4545,21,75,4710,64,4607,18
4548,21,76,1431,40,3145,18
4551,21,77,660,59,2628,18
4554,21,78,5784,79,3750,18
4557,21,79,4608,79,2902,18
4560,21,80,3966,38,2356,18
4563,21,81,270,69,4175,18
4566,21,82,408,57,2879,18
4569,21,83,2529,43,2988,18
4572,21,84,5745,54,2538,18
4575,21,85,2166,83,3274,18
4578,21,86,4350,28,3482,18
4581,21,87,402,63,3062,18
4584,21,88,5037,100,4163,18
4587,21,89,2727,69,3013,18
4590,21,90,381,60,2433,18
4593,21,91,5409,90,2543,18
4596,21,92,1401,44,4023,18
4599,21,93,3867,42,4304,18
4602,21,94,840,58,4404,18
4605,21,95,1407,43,2523,18
4608,21,96,2469,44,2787,18
4611,21,97,3024,40,3497,18
4614,21,98,1554,83,3532,18
4617,21,99,957,61,4520,18
4620,21,100,2730,67,10482,18
4623,21,101,4995,83,9620,18
4626,21,102,4476,72,3758,18
4629,21,103,42,93,2820,18
4632,21,104,2550,65,3064,18
4635,21,105,3921,2,2728,18
4638,21,106,1398,38,2676,18
4641,21,107,1728,42,4682,18
4644,21,108,5670,78,2615,18
4647,21,109,4953,52,5894,18
4650,21,110,5496,54,3810,18
4653,21,111,4668,56,11409,18
4656,21,112,3873,43,3103,18
4659,21,113,4413,45,3653,18
4662,21,114,3597,37,54539,18
4665,21,115,5817,64,5348,18
4668,21,116,1839,62,2840,18
4671,21,117,5613,61,2244,18
4674,21,118,1710,67,3044,18
4677,21,119,3822,21,2804,18
4680,21,120,3825,10,2613,18
4683,21,121,5490,69,3755,18
4686,21,122,825,0,6628,18
4689,21,123,4836,32,5712,18
4692,21,124,2724,90,7783,18
4695,21,125,4320,19,3252,18
4698,21,126,1905,61,3143,18
4701,21,127,3507,62,4552,18
4704,21,128,5826,55,5716,18
4707,21,129,4089,61,2751,18
4710,21,130,3609,46,3229,18
4713,21,131,2895,58,3219,18
4716,21,132,792,66,2640,18
4719,21,133,5814,44,2853,18
4722,21,134,2832,46,2858,18
4725,21,135,111,23,2244,18
4728,21,136,4620,62,4053,18
4731,21,137,1386,28,2771,18
4734,21,138,2205,41,2246,18
4737,21,139,1347,33,5040,18
4740,21,140,1302,28,3192,18
4743,21,141,2490,31,2948,18
4746,21,142,2484,32,2810,18
4749,21,143,4722,38,3834,18
4752,21,144,444,38,1965,18
4755,21,145,4167,60,3205,18
4758,21,146,804,40,2260,18
4761,21,147,84,36,2377,18
4764,21,148,1779,57,2952,18
4767,21,149,702,53,3604,18
4770,21,150,3948,60,3526,18
4773,21,151,4347,33,5269,18
4776,21,152,1806,76,12166,18
4779,21,153,5268,60,2786,18
4782,21,154,4536,71,6406,18
4785,21,155,2952,67,5301,18
4788,21,156,1320,63,5744,18
4791,21,157,3903,1,6266,18
4794,21,158,1971,17,6999,18
4797,21,159,2709,84,21694,18
4800,21,160,5700,58,3421,18
4803,21,161,204,42,3255,18
4806,21,162,2544,70,12060,18
4809,21,163,672,54,2510,18
4812,21,164,4818,75,4858,18
4815,21,165,3612,60,2212,18
4818,21,166,5421,77,3838,18
4821,21,167,5169,65,2842,18
4824,21,168,3048,60,3582,18
4827,21,169,3060,85,2950,18
4830,21,170,558,61,20460,18
4833,21,171,4197,14,7024,18
4836,21,172,2187,66,7270,18
4839,21,173,3270,64,2695,18
4842,21,174,3831,56,3952,18
4845,21,175,3516,83,2416,18
4848,21,176,594,28,9539,18
4851,21,177,3534,65,2876,18
4854,21,178,45,81,3056,18
4857,21,179,2322,13,8837,18
4860,21,180,3786,15,4415,18
4863,21,181,5316,75,3904,18
4866,21,182,2121,55,4153,18
4869,21,183,2664,23,2848,18
4872,21,184,3180,28,3360,18
4875,21,185,3351,42,14503,18
4878,21,186,1830,72,4253,18
4881,21,187,4965,57,3162,18
4884,21,188,5043,71,12279,18
4887,21,189,4044,28,2694,18
4890,21,190,3348,57,6513,18
4893,21,191,486,43,10820,18
4896,21,192,1053,41,8444,18
4899,21,193,1311,43,3012,18
4902,21,194,3372,64,3576,18
4905,21,195,1116,39,8491,18
4908,21,196,5601,88,13842,18
4911,21,197,1824,58,4273,18
4914,21,198,924,56,11284,18
4917,21,199,3156,72,18300,18
4920,21,200,3567,65,7941,18
4923,21,201,4296,21,2434,18
4926,21,202,1032,64,19404,18
4929,21,203,1896,58,5490,18
4932,21,204,912,59,2227,18
4935,21,205,5739,42,2705,18
4938,21,206,3195,67,3757,18
4941,21,207,5733,62,4030,18
4944,21,208,2283,57,2414,18
4947,21,209,2496,40,4380,18
4950,21,210,510,58,5029,18
4953,21,211,3798,12,3138,18
4956,21,212,1770,54,7382,18
4959,21,213,5205,96,5202,18
4962,21,214,1803,71,4144,18
4965,21,215,531,66,3330,18
4968,21,216,5619,63,3290,18
4971,21,217,2772,54,2998,18
4974,21,218,3978,55,6012,18
4977,21,219,3375,64,3624,18
4980,21,220,819,70,2718,18
4983,21,221,1635,59,10680,18
4986,21,222,5901,57,2426,18
4989,21,223,5370,63,2777,18
4992,21,224,1587,61,6484,18
4995,21,225,4173,32,11591,18
4998,21,226,5703,61,3013,18
5001,21,227,732,59,7920,18
5004,21,228,5034,74,3052,18
5007,21,229,1764,46,3082,18
5010,21,230,1566,42,11593,18
5013,21,231,405,44,3243,18
5016,21,232,3102,63,3048,18
5019,21,233,678,58,4328,18
5022,21,234,789,45,3496,18
5025,21,235,945,45,2469,18
5028,21,236,2175,45,2306,18
5031,21,237,4731,82,6976,18
5034,21,238,4563,63,5408,18
5037,21,239,3393,47,3225,18
5040,21,240,2208,45,2671,18
5043,24,1,4155,20,9219,45
5046,24,2,4380,16,4231,45
5049,24,3,1044,51,3444,45
5052,24,4,2373,18,3559,45
5055,24,5,4932,84,5299,45
5058,24,6,291,64,3656,45
5061,24,7,2286,11,4607,45
5064,24,8,1383,67,4979,45
5067,24,9,4320,0,4423,45
5070,24,10,4053,0,3502,45
5073,24,11,3630,84,4430,45
5076,24,12,723,34,4775,45
5079,24,13,201,49,5660,45
5082,24,14,4779,60,3540,45
5085,24,15,1680,66,2540,45
5088,24,16,663,44,2799,45
5091,24,17,1410,66,3829,45
5094,24,18,3480,77,2965,45
5097,24,19,5244,66,2959,45
5100,24,20,906,75,3547,45
5103,24,21,882,66,4084,45
5106,24,22,87,20,3708,45
5109,24,23,4176,55,6037,45
5112,24,24,861,59,3483,45
5115,24,25,3048,66,4888,45
5118,24,26,4029,39,2904,45
5121,24,27,3474,69,3387,45
5124,24,28,2676,50,3838,45
5127,24,29,3402,76,5284,45
5130,24,30,4308,0,4082,45
5133,24,31,3711,85,4004,45
5136,24,32,1278,57,4053,45
5139,24,33,3,46,5902,45
5142,24,34,4698,41,3844,45
5145,24,35,363,50,4081,45
5148,24,36,5439,75,4838,45
5151,24,37,297,50,5155,45
5154,24,38,603,48,4011,45
5157,24,39,1920,60,3771,45
5160,24,40,855,66,5484,45
5163,24,41,3639,69,3820,45
5166,24,42,5526,76,3132,45
5169,24,43,3861,67,2744,45
5172,24,44,5694,93,4174,45
5175,24,45,1851,69,3353,45
5178,24,46,4101,70,3779,45
5181,24,47,4791,38,3549,45
5184,24,48,3747,2,2876,45
5187,24,49,4464,62,4100,45
5190,24,50,3054,68,3796,45
5193,24,51,873,67,5388,45
5196,24,52,3795,54,3540,45
5199,24,53,4011,15,3356,45
5202,24,54,3834,56,3730,45
5205,24,55,408,52,4222,45
5208,24,56,1038,69,5265,45
5211,24,57,5268,61,2941,45
5214,24,58,3594,81,6763,45
5217,24,59,951,56,3746,45
5220,24,60,54,55,4126,45
5223,24,61,1173,55,3980,45
5226,24,62,4767,89,4301,45
5229,24,63,1221,78,4015,45
5232,24,64,1509,56,5133,45
5235,24,65,2145,38,8669,45
5238,24,66,5583,89,4492,45
5241,24,67,3957,50,3419,45
5244,24,68,2448,45,2798,45
5247,24,69,1734,83,6112,45
5250,24,70,5031,100,4378,45
5253,24,71,1272,69,3222,45
5256,24,72,5298,56,4052,45
5259,24,73,3240,42,4422,45
5262,24,74,576,40,2620,45
5265,24,75,3084,51,4237,45
5268,24,76,4743,62,2939,45
5271,24,77,3891,56,3660,45
5274,24,78,1101,65,3636,45
5277,24,79,4983,93,3860,45
5280,24,80,5970,44,5157,45
5283,24,81,12,42,2644,45
5286,24,82,5112,80,3203,45
5289,24,83,1179,53,2756,45
5292,24,84,4836,71,5404,45
5295,24,85,1203,63,5656,45
5298,24,86,1290,67,3703,45
5301,24,87,4338,0,3622,45
5304,24,88,2124,55,4275,45
5307,24,89,447,78,4760,45
5310,24,90,5655,82,3517,45
5313,24,91,2325,54,3117,45
5316,24,92,3039,83,3699,45
5319,24,93,2943,76,3397,45
5322,24,94,2205,55,3066,45
5325,24,95,1380,67,4243,45
5328,24,96,876,21,7133,45
5331,24,97,5664,66,3684,45
5334,24,98,4638,82,5910,45
5337,24,99,4998,96,3634,45
5340,24,100,2121,55,3450,45
5343,24,101,4668,77,4911,45
5346,24,102,96,68,5020,45
5349,24,103,4287,7,4347,45
5352,24,104,1806,91,3597,45
5355,24,105,288,43,3533,45
5358,24,106,642,51,3596,45
5361,24,107,3354,92,4344,45
5364,24,108,462,56,3645,45
5367,24,109,1554,83,4789,45
5370,24,110,5643,92,4627,45
5373,24,111,5424,89,6009,45
5376,24,112,3180,62,3573,45
5379,24,113,687,52,4412,45
5382,24,114,1386,54,4085,45
5385,24,115,4959,76,6380,45
5388,24,116,1620,83,4164,45
5391,24,117,765,45,5395,45
5394,24,118,1887,32,2899,45
5397,24,119,5376,84,4680,45
5400,24,120,3330,67,3265,45
5403,24,121,1857,98,3166,45
5406,24,122,2001,54,3283,45
5409,24,123,1080,57,3789,45
5412,24,124,1059,66,4035,45
5415,24,125,4056,36,4060,45
5418,24,126,4887,82,5564,45
5421,24,127,153,56,4507,45
5424,24,128,1194,57,3995,45
5427,24,129,3558,83,4489,45
5430,24,130,5316,82,3083,45
5433,24,131,5361,95,3388,45
5436,24,132,4965,81,5328,45
5439,24,133,1683,95,3963,45
5442,24,134,3531,80,3017,45
5445,24,135,2148,5,3027,45
5448,24,136,2601,50,4663,45
5451,24,137,5934,59,4688,45
5454,24,138,4686,67,3796,45
5457,24,139,2838,77,3148,45
5460,24,140,183,69,3861,45
5463,24,141,2433,38,4142,45
5466,24,142,768,50,3087,45
5469,24,143,822,36,3254,45
5472,24,144,4710,83,4360,45
5475,24,145,2721,90,3604,45
5478,24,146,1428,57,2845,45
5481,24,147,567,46,3228,45
5484,24,148,2460,32,2293,45
5487,24,149,5049,96,3803,45
5490,24,150,5319,67,2656,45
5493,24,151,3729,18,4667,45
5496,24,152,4170,20,4917,45
5499,24,153,5922,73,2892,45
5502,24,154,798,45,4415,45
5505,24,155,504,36,3372,45
5508,24,156,3051,45,3331,45
5511,24,157,4245,17,2756,45
5514,24,158,4734,85,4217,45
5517,24,159,4665,43,3596,45
5520,24,160,5889,45,5829,45
5523,24,161,1002,34,3687,45
5526,24,162,4671,90,2970,45
5529,24,163,5148,84,3087,45
5532,24,164,2352,50,3717,45
5535,24,165,1992,43,2235,45
5538,24,166,2862,33,2626,45
5541,24,167,240,38,2853,45
5544,24,168,3468,56,3419,45
5547,24,169,3276,57,2804,45
5550,24,170,495,45,3941,45
5553,24,171,483,36,4652,45
5556,24,172,294,35,6068,45
5559,24,173,2790,58,4787,45
5562,24,174,5205,85,3964,45
5565,24,175,3372,88,2663,45
5568,24,176,3909,23,3326,45
5571,24,177,771,50,6033,45
5574,24,178,1884,37,4763,45
5577,24,179,5106,55,3099,45
5580,24,180,1725,87,3769,45
5583,24,181,2658,52,3629,45
5586,24,182,1524,83,4571,45
5589,24,183,1722,94,6068,45
5592,24,184,2799,65,3236,45
5595,24,185,3390,59,3702,45
5598,24,186,2763,69,3938,45
5601,24,187,1113,16,3756,45
5604,24,188,4401,68,3824,45
5607,24,189,5916,34,4200,45
5610,24,190,192,50,3761,45
5613,24,191,5652,89,2365,45
5616,24,192,3501,77,2598,45
5619,24,193,4581,77,3089,45
5622,24,194,945,56,3844,45
5625,24,195,4395,80,3324,45
5628,24,196,3939,75,5673,45
5631,24,197,5418,92,4211,45
5634,24,198,4200,56,3761,45
5637,24,199,3477,55,2780,45
5640,24,200,66,43,2403,45
5643,24,201,5925,76,3077,45
5646,24,202,5142,76,2778,45
5649,24,203,1641,64,2627,45
5652,24,204,4050,56,3334,45
5655,24,205,510,64,3561,45
5658,24,206,1941,50,4933,45
5661,24,207,5331,76,4948,45
5664,24,208,2985,61,3363,45
5667,24,209,5133,74,8598,45
5670,24,210,3210,67,3555,45
5673,24,211,453,83,3763,45
5676,24,212,5706,89,3884,45
5679,24,213,2046,56,2635,45
5682,24,214,3702,77,3308,45
5685,24,215,5292,81,3997,45
5688,24,216,4989,82,3061,45
5691,24,217,2718,80,3011,45
5694,24,218,2028,62,3308,45
5697,24,219,5289,83,3572,45
5700,24,220,2070,44,4404,45
5703,24,221,4770,100,4052,45
5706,24,222,5586,95,4014,45
5709,24,223,60,56,3198,45
5712,24,224,2391,43,2972,45
5715,24,225,3192,78,2974,45
5718,24,226,885,33,4516,45
5721,24,227,4479,66,2581,45
5724,24,228,2085,60,3436,45
5727,24,229,3438,68,4117,45
5730,24,230,4533,83,3531,45
5733,24,231,1545,32,3066,45
5736,24,232,4560,80,3839,45
5739,24,233,3201,79,3684,45
5742,24,234,3036,35,3614,45
5745,24,235,3216,50,3941,45
5748,24,236,657,19,3559,45
5751,24,237,1473,39,3072,45
5754,24,238,1692,81,2822,45
5757,24,239,3384,88,3812,45
5760,24,240,1188,46,3372,45
5763,27,1,2169,34,10454,9
5766,27,2,960,82,13873,9
5769,27,3,3186,0,8352,9
5772,27,4,4050,68,8812,9
5775,27,5,3969,15,5110,9
5778,27,6,4626,65,7353,9
5781,27,7,5115,62,8340,9
5784,27,8,438,30,9420,9
5787,27,9,921,85,4693,9
5790,27,10,255,100,6873,9
5793,27,11,4257,0,7545,9
5796,27,12,4845,64,9562,9
5799,27,13,1038,99,6202,9
5802,27,14,2619,100,4827,9
5805,27,15,5100,30,7793,9
5808,27,16,4851,63,6751,9
5811,27,17,3090,82,7171,9
5814,27,18,771,84,9867,9
5817,27,19,4605,0,6805,9
5820,27,20,5247,67,35504,9
5823,27,21,3168,16,6561,9
5826,27,22,4584,15,4877,9
5829,27,23,3120,68,6765,9
5832,27,24,3714,67,5459,9
5835,27,25,2022,83,8497,9
5838,27,26,5187,16,3739,9
5841,27,27,2355,83,5752,9
5844,27,28,4509,30,22452,9
5847,27,29,1560,32,4439,9
5850,27,30,1866,13,4371,9
5853,27,31,2805,50,7941,9
5856,27,32,51,83,4207,9
5859,27,33,4521,62,7267,9
5862,27,34,3807,17,6719,9
5865,27,35,2115,18,3333,9
5868,27,36,4233,83,4395,9
5871,27,37,5916,50,3627,9
5874,27,38,5406,81,12751,9
5877,27,39,5034,15,3695,9
5880,27,40,1296,84,4133,9
5883,27,41,5652,81,6133,9
5886,27,42,3489,81,3788,9
5889,27,43,2865,80,8307,9
5892,27,44,1953,15,4899,9
5895,27,45,1755,50,7439,9
5898,27,46,3495,50,4635,9
5901,27,47,3105,16,4581,9
5904,27,48,3150,11,12205,9
5907,27,49,5553,84,7007,9
5910,27,50,5214,14,3331,9
5913,27,51,855,84,8717,9
5916,27,52,1431,85,4911,9
5919,27,53,3018,98,4767,9
5922,27,54,2679,61,8684,9
5925,27,55,3984,65,3206,9
5928,27,56,1110,83,14443,9
5931,27,57,4392,83,4195,9
5934,27,58,2187,83,9232,9
5937,27,59,3624,50,8248,9
5940,27,60,4659,28,19359,9
5943,27,61,2829,85,6442,9
5946,27,62,3432,64,16251,9
5949,27,63,1602,82,5990,9
5952,27,64,5073,50,4918,9
5955,27,65,2589,49,6227,9
5958,27,66,807,84,4374,9
5961,27,67,4539,13,3489,9
5964,27,68,4818,49,3365,9
5967,27,69,1404,83,3881,9
5970,27,70,5637,18,9086,9
5973,27,71,1437,96,4604,9
5976,27,72,4005,69,4310,9
5979,27,73,4041,70,2828,9
5982,27,74,1917,32,4794,9
5985,27,75,669,65,8084,9
5988,27,76,273,62,4970,9
5991,27,77,4668,50,9898,9
5994,27,78,2553,84,4086,9
5997,27,79,1371,84,2810,9
6000,27,80,4167,83,2947,9
6003,27,81,2748,14,6973,9
6006,27,82,2697,5,4404,9
6009,27,83,4461,2,4424,9
6012,27,84,1077,19,12431,9
6015,27,85,4245,0,3471,9
6018,27,86,1014,35,5657,9
6021,27,87,144,80,4817,9
6024,27,88,5775,49,6333,9
6027,27,89,4641,82,7548,9
6030,27,90,99,83,8667,9
6033,27,91,5193,4,3290,9
6036,27,92,2388,83,9399,9
6039,27,93,3357,16,5620,9
6042,27,94,1614,14,13985,9
6045,27,95,3339,82,10064,9
6048,27,96,4284,0,3975,9
6051,27,97,3717,83,3984,9
6054,27,98,4503,16,17889,9
6057,27,99,2268,50,4413,9
6060,27,100,5211,2,24167,9
6063,27,101,2988,2,5627,9
6066,27,102,759,84,3261,9
6069,27,103,4989,18,3478,9
6072,27,104,111,83,4365,9
6075,27,105,2778,82,3053,9
6078,27,106,915,84,2326,9
6081,27,107,5148,64,4739,9
6084,27,108,4434,66,3991,9
6087,27,109,744,64,13721,9
6090,27,110,4158,50,7347,9
6093,27,111,3165,84,12176,9
6096,27,112,5841,83,4290,9
6099,27,113,531,82,4742,9
6102,27,114,1695,66,4547,9
6105,27,115,4401,67,4819,9
6108,27,116,5382,82,7913,9
6111,27,117,3939,86,5053,9
6114,27,118,3732,16,5220,9
6117,27,119,1011,82,3881,9
6120,27,120,483,84,2602,9
6123,27,121,4500,65,6145,9
6126,27,122,5697,65,18439,9
6129,27,123,5016,16,3521,9
6132,27,124,5226,83,2947,9
6135,27,125,3183,83,3179,9
6138,27,126,2271,3,4213,9
6141,27,127,3,84,3495,9
6144,27,128,1140,82,2991,9
6147,27,129,918,15,6457,9
6150,27,130,3402,17,3699,9
6153,27,131,966,83,5045,9
6156,27,132,522,83,3731,9
6159,27,133,2421,50,6308,9
6162,27,134,2472,33,6509,9
6165,27,135,2046,68,6383,9
6168,27,136,1527,1,3511,9
6171,27,137,4302,62,4264,9
6174,27,138,3930,4,2772,9
6177,27,139,5145,4,4641,9
6180,27,140,1380,82,3949,9
6183,27,141,198,50,4444,9
6186,27,142,630,83,3115,9
6189,27,143,2703,67,15528,9
6192,27,144,3213,6,8154,9
6195,27,145,579,83,3328,9
6198,27,146,5037,2,3945,9
6201,27,147,3819,16,7335,9
6204,27,148,3054,13,18458,9
6207,27,149,4560,4,3114,9
6210,27,150,4374,1,5560,9
6213,27,151,5928,3,3331,9
6216,27,152,4920,3,2555,9
6219,27,153,2454,4,2691,9
6222,27,154,1569,2,14442,9
6225,27,155,2019,1,5278,9
6228,27,156,381,83,3607,9
6231,27,157,4680,68,4309,9
6234,27,158,4254,3,3423,9
6237,27,159,4200,65,14053,9
6240,27,160,5250,66,4708,9
6243,27,161,1824,1,4422,9
6246,27,162,3987,0,20597,9
6249,27,163,27,50,8351,9
6252,27,164,1200,81,3986,9
6255,27,165,3261,3,3719,9
6258,27,166,4941,4,20373,9
6261,27,167,2544,83,3340,9
6264,27,168,1626,3,4992,9
6267,27,169,2631,1,19843,9
6270,27,170,261,63,8077,9
6273,27,171,1281,96,29012,9
6276,27,172,1764,66,3845,9
6279,27,173,567,82,13744,9
6282,27,174,1806,7,4864,9
6285,27,175,3012,4,2957,9
6288,27,176,3960,84,6089,9
6291,27,177,4923,5,8309,9
6294,27,178,3786,3,2862,9
6297,27,179,285,61,3491,9
6300,27,180,2802,65,6980,9
6303,27,181,5880,81,10588,9
6306,27,182,2331,64,7359,9
6309,27,183,4197,4,3145,9
6312,27,184,2442,67,6045,9
6315,27,185,5514,15,10583,9
6318,27,186,3834,4,4511,9
6321,27,187,1707,66,6493,9
6324,27,188,4227,50,4506,9
6327,27,189,3828,1,3129,9
6330,27,190,3306,4,9054,9
6333,27,191,5235,68,6501,9
6336,27,192,2406,82,4459,9
6339,27,193,432,83,2873,9
6342,27,194,1584,30,3957,9
6345,27,195,5199,66,8207,9
6348,27,196,2070,71,3580,9
6351,27,197,3897,4,4709,9
6354,27,198,1482,65,10157,9
6357,27,199,2937,65,5257,9
6360,27,200,873,84,5509,9
6363,27,201,2961,63,7513,9
6366,27,202,1641,3,3598,9
6369,27,203,3351,35,10165,9
6372,27,204,3891,5,3961,9
6375,27,205,2559,84,30881,9
6378,27,206,3933,1,12508,9
6381,27,207,2013,5,18749,9
6384,27,208,3321,16,3079,9
6387,27,209,4332,63,4949,9
6390,27,210,387,84,24429,9
6393,27,211,2409,98,7261,9
6396,27,212,1899,85,5082,9
6399,27,213,5208,66,5123,9
6402,27,214,5379,67,6535,9
6405,27,215,1815,50,16041,9
6408,27,216,4299,66,3288,9
6411,27,217,3879,3,7785,9
6414,27,218,5511,5,5311,9
6417,27,219,1671,81,7756,9
6420,27,220,4191,3,7795,9
6423,27,221,5475,15,3235,9
6426,27,222,4218,64,10745,9
6429,27,223,4272,15,3719,9
6432,27,224,4416,66,7214,9
6435,27,225,5727,35,4953,9
6438,27,226,1623,4,4717,9
6441,27,227,4080,5,4265,9
6444,27,228,4236,38,7309,9
6447,27,229,2775,32,5773,9
6450,27,230,4962,31,14891,9
6453,27,231,5151,33,5307,9
6456,27,232,990,64,3099,9
6459,27,233,246,2,7648,9
6462,27,234,1674,67,17347,9
6465,27,235,912,34,53348,9
6468,27,236,2793,64,4468,9
6471,27,237,5121,30,35686,9
6474,27,238,327,33,5319,9
6477,27,239,987,67,8339,9
6480,27,240,3522,83,14090,9
6483,30,1,2271,32,6410,48
6486,30,2,2196,65,11718,48
6489,30,3,1809,32,13108,48
6492,30,4,1677,74,10190,48
6495,30,5,4632,33,5346,48
6498,30,6,3771,66,6817,48
6501,30,7,1986,86,6095,48
6504,30,8,123,86,5960,48
6507,30,9,822,77,8508,48
6510,30,10,1662,18,10309,48
6513,30,11,5634,62,6726,48
6516,30,12,5667,44,4686,48
6519,30,13,3111,33,4771,48
6522,30,14,1851,75,5317,48
6525,30,15,3381,27,3832,48
6528,30,16,3042,19,5819,48
6531,30,17,582,18,5218,48
6534,30,18,3852,36,4998,48
6537,30,19,588,40,3902,48
6540,30,20,4479,65,4893,48
6543,30,21,5196,63,5789,48
6546,30,22,2742,34,5720,48
6549,30,23,1260,82,4636,48
6552,30,24,621,90,6914,48
6555,30,25,5943,20,4279,48
6558,30,26,795,26,13636,48
6561,30,27,2529,55,5720,48
6564,30,28,3294,81,4582,48
6567,30,29,3558,20,7015,48
6570,30,30,2193,29,9203,48
6573,30,31,1266,91,4072,48
6576,30,32,5616,85,4326,48
6579,30,33,1734,32,4716,48
6582,30,34,4251,78,4369,48
6585,30,35,1059,9,6018,48
6588,30,36,3975,81,4553,48
6591,30,37,945,79,3792,48
6594,30,38,549,29,4846,48
6597,30,39,2010,25,4108,48
6600,30,40,2016,86,4299,48
6603,30,41,1866,51,5861,48
6606,30,42,3240,84,4178,48
6609,30,43,4458,71,4431,48
6612,30,44,2388,64,5062,48
6615,30,45,5322,19,4249,48
6618,30,46,2526,82,3973,48
6621,30,47,5382,29,4477,48
6624,30,48,2061,36,5888,48
6627,30,49,3612,63,6564,48
6630,30,50,2307,85,4809,48
6633,30,51,2328,35,4900,48
6636,30,52,3006,31,4067,48
6639,30,53,1638,38,7268,48
6642,30,54,3642,18,3938,48
6645,30,55,5304,59,3982,48
6648,30,56,5529,35,3900,48
6651,30,57,444,83,4250,48
6654,30,58,984,65,4653,48
6657,30,59,738,26,4384,48
6660,30,60,21,92,4520,48
6663,30,61,3321,78,4044,48
6666,30,62,3744,62,3828,48
6669,30,63,810,83,3705,48
6672,30,64,207,79,3697,48
6675,30,65,3726,85,3598,48
6678,30,66,1602,26,4474,48
6681,30,67,5673,86,7663,48
6684,30,68,3300,93,3895,48
6687,30,69,2235,37,3212,48
6690,30,70,2646,88,4059,48
6693,30,71,1230,37,5595,48
6696,30,72,1839,64,4675,48
6699,30,73,5448,70,3234,48
6702,30,74,2958,68,4597,48
6705,30,75,2988,60,3711,48
6708,30,76,4488,74,4616,48
6711,30,77,1980,39,3375,48
6714,30,78,5247,65,3678,48
6717,30,79,2610,35,4361,48
6720,30,80,1683,77,4506,48
6723,30,81,780,90,4596,48
6726,30,82,5136,84,3536,48
6729,30,83,4773,56,5472,48
6732,30,84,2067,80,4175,48
6735,30,85,3231,83,5204,48
6738,30,86,3273,66,4549,48
6741,30,87,3060,63,4363,48
6744,30,88,4152,85,4978,48
6747,30,89,3882,46,4839,48
6750,30,90,3621,30,6660,48
6753,30,91,5211,80,5269,48
6756,30,92,5289,66,7723,48
6759,30,93,5658,29,3659,48
6762,30,94,4167,84,3304,48
6765,30,95,78,81,3385,48
6768,30,96,3795,25,3060,48
6771,30,97,5370,76,4607,48
6774,30,98,744,83,3593,48
6777,30,99,4716,12,3600,48
6780,30,100,4467,82,6100,48
6783,30,101,861,92,3942,48
6786,30,102,5226,20,3664,48
6789,30,103,2484,75,7374,48
6792,30,104,267,75,3734,48
6795,30,105,1347,28,3457,48
6798,30,106,3849,41,3320,48
6801,30,107,684,64,3344,48
6804,30,108,1152,31,3338,48
6807,30,109,669,70,3505,48
6810,30,110,5079,28,4387,48
6813,30,111,5034,72,3659,48
6816,30,112,1824,30,3563,48
6819,30,113,2283,28,3072,48
6822,30,114,2142,82,3857,48
6825,30,115,1188,81,3885,48
6828,30,116,234,84,3410,48
6831,30,117,2877,62,4183,48
6834,30,118,4524,67,3583,48
6837,30,119,1179,85,3696,48
6840,30,120,5520,64,3636,48
6843,30,121,1032,34,5058,48
6846,30,122,5157,75,3035,48
6849,30,123,2967,64,3279,48
6852,30,124,1521,62,3507,48
6855,30,125,4956,40,3596,48
6858,30,126,3984,66,3093,48
6861,30,127,660,73,3549,48
6864,30,128,3978,81,4243,48
6867,30,129,3423,76,5515,48
6870,30,130,2532,74,4862,48
6873,30,131,2118,72,12551,48
6876,30,132,1449,88,3461,48
6879,30,133,1398,37,10214,48
6882,30,134,5307,66,7226,48
6885,30,135,1632,20,3110,48
6888,30,136,3441,23,3633,48
6891,30,137,1650,37,3663,48
6894,30,138,3447,31,3471,48
6897,30,139,3162,64,4023,48
6900,30,140,3084,34,3460,48
6903,30,141,5937,66,6693,48
6906,30,142,2064,83,3580,48
6909,30,143,4071,64,2991,48
6912,30,144,2121,33,3805,48
6915,30,145,2430,32,3745,48
6918,30,146,1386,28,4983,48
6921,30,147,255,76,3523,48
6924,30,148,4548,74,3680,48
6927,30,149,3834,68,4136,48
6930,30,150,1752,29,4987,48
6933,30,151,4764,16,4200,48
6936,30,152,5424,64,3346,48
6939,30,153,5457,35,2705,48
6942,30,154,3237,55,3336,48
6945,30,155,372,64,3558,48
6948,30,156,5097,69,5100,48
6951,30,157,3870,66,2991,48
6954,30,158,3360,78,8284,48
6957,30,159,5496,71,3084,48
6960,30,160,5688,77,3209,48
6963,30,161,4758,76,4133,48
6966,30,162,4221,82,2787,48
6969,30,163,1482,89,5016,48
6972,30,164,4428,75,32605,48
6975,30,165,2244,18,3637,48
6978,30,166,2538,15,4159,48
6981,30,167,1539,15,5247,48
6984,30,168,3264,84,4753,48
6987,30,169,1092,83,3904,48
6990,30,170,3702,80,3708,48
6993,30,171,5940,65,4045,48
6996,30,172,1485,27,30310,48
6999,30,173,5091,77,4591,48
7002,30,174,3198,79,3564,48
7005,30,175,762,77,3516,48
7008,30,176,150,80,3314,48
7011,30,177,2997,76,3185,48
7014,30,178,3909,84,3862,48
7017,30,179,2850,97,3840,48
7020,30,180,4452,63,3241,48
7023,30,181,1551,77,8704,48
7026,30,182,174,84,11468,48
7029,30,183,3840,64,4817,48
7032,30,184,1299,70,3310,48
7035,30,185,4992,31,6457,48
7038,30,186,5205,36,3284,48
7041,30,187,336,66,4768,48
7044,30,188,3426,64,3857,48
7047,30,189,693,70,3413,48
7050,30,190,4017,83,3552,48
7053,30,191,1248,79,3277,48
7056,30,192,849,82,3532,48
7059,30,193,1242,81,4661,48
7062,30,194,1122,81,3962,48
7065,30,195,1434,82,4972,48
7068,30,196,2478,58,3163,48
7071,30,197,1452,90,3184,48
7074,30,198,777,68,5504,48
7077,30,199,1470,82,3614,48
7080,30,200,4044,63,287575,48
7083,30,201,5781,78,7350,48
7086,30,202,366,70,968841,48
7089,30,203,1788,77,8525,48
7092,30,204,567,79,7131,48
7095,30,205,2931,26,5424,48
7098,30,206,1476,79,6261,48
7101,30,207,2757,81,1174656,48
7104,30,208,5421,82,5661,48
7107,30,209,4599,,,48
7110,30,210,1011,,,48
7113,30,211,4929,,,48
7116,30,212,3690,,,48
7119,30,213,3141,,,48
7122,30,214,3066,,,48
7125,30,215,5679,,,48
7128,30,216,84,,,48
7131,30,217,5013,,,48
7134,30,218,2313,,,48
7137,30,219,306,,,48
7140,30,220,786,,,48
7143,30,221,1254,,,48
7146,30,222,5364,,,48
7149,30,223,2724,,,48
7152,30,224,5046,,,48
7155,30,225,3513,,,48
7158,30,226,537,,,48
7161,30,227,2556,,,48
7164,30,228,3960,,,48
7167,30,229,1284,,,48
7170,30,230,5718,,,48
7173,30,231,519,,,48
7176,30,232,5274,,,48
7179,30,233,3534,,,48
7182,30,234,4146,,,48
7185,30,235,1071,,,48
7188,30,236,4920,,,48
7191,30,237,4077,,,48
7194,30,238,3552,,,48
7197,30,239,492,,,48
7200,30,240,3798,,,48
7203,33,1,2145,64,6451,42
7206,33,2,3441,79,8549,42
7209,33,3,753,95,8229,42
7212,33,4,939,33,5364,42
7215,33,5,2517,54,6063,42
7218,33,6,9,78,4326,42
7221,33,7,5154,24,7321,42
7224,33,8,2403,45,8460,42
7227,33,9,1494,55,7532,42
7230,33,10,72,11,4380,42
7233,33,11,1155,72,4297,42
7236,33,12,5691,75,6741,42
7239,33,13,5406,11,7212,42
7242,33,14,3204,69,3484,42
7245,33,15,2544,85,4430,42
7248,33,16,5697,59,4192,42
7251,33,17,3051,0,3573,42
7254,33,18,1266,32,5341,42
7257,33,19,5391,65,5254,42
7260,33,20,2988,15,4516,42
7263,33,21,2076,32,3917,42
7266,33,22,5619,63,4185,42
7269,33,23,4752,33,4390,42
7272,33,24,2910,71,7929,42
7275,33,25,1080,83,6752,42
7278,33,26,5799,76,5373,42
7281,33,27,2937,0,4112,42
7284,33,28,5388,61,4317,42
7287,33,29,294,81,3606,42
7290,33,30,2274,29,3539,42
7293,33,31,684,58,5086,42
7296,33,32,4068,50,7886,42
7299,33,33,2085,69,5509,42
7302,33,34,3171,83,4960,42
7305,33,35,3195,88,3405,42
7308,33,36,3063,61,6458,42
7311,33,37,987,78,6900,42
7314,33,38,2727,18,7295,42
7317,33,39,549,10,7458,42
7320,33,40,5889,40,6481,42
7323,33,41,2031,42,6300,42
7326,33,42,1044,61,5329,42
7329,33,43,5499,72,5059,42
7332,33,44,873,90,4028,42
7335,33,45,888,92,8216,42
7338,33,46,1002,69,4799,42
7341,33,47,1758,62,4614,42
7344,33,48,2805,57,5385,42
7347,33,49,5031,80,2928,42
7350,33,50,5916,16,4618,42
7353,33,51,2676,50,6586,42
7356,33,52,3096,66,5068,42
7359,33,53,4014,62,4346,42
7362,33,54,1446,77,4487,42
7365,33,55,3120,59,4956,42
7368,33,56,2508,36,4284,42
7371,33,57,5826,10,3117,42
7374,33,58,3567,75,3800,42
7377,33,59,2757,0,7717,42
7380,33,60,2853,23,5155,42
7383,33,61,4398,40,3934,42
7386,33,62,2208,63,3073,42
7389,33,63,117,82,3461,42
7392,33,64,3318,45,4791,42
7395,33,65,3936,35,5026,42
7398,33,66,4260,17,4334,42
7401,33,67,708,39,4613,42
7404,33,68,3156,55,3264,42
7407,33,69,2697,70,2842,42
7410,33,70,4713,56,5463,42
7413,33,71,3507,79,2979,42
7416,33,72,1860,88,6563,42
7419,33,73,5490,17,4802,42
7422,33,74,3687,84,3653,42
7425,33,75,5463,64,5922,42
7428,33,76,1626,2,5186,42
7431,33,77,5142,86,5334,42
7434,33,78,4599,76,4658,42
7437,33,79,4926,70,4577,42
7440,33,80,3690,82,3972,42
7443,33,81,4980,33,7649,42
7446,33,82,3582,70,4172,42
7449,33,83,5730,86,3068,42
7452,33,84,5466,32,3770,42
7455,33,85,2472,44,3817,42
7458,33,86,972,62,5697,42
7461,33,87,3396,85,4993,42
7464,33,88,4527,18,3385,42
7467,33,89,3831,58,3850,42
7470,33,90,5748,39,4017,42
7473,33,91,798,23,5077,42
7476,33,92,3288,75,4554,42
7479,33,93,3012,28,3919,42
7482,33,94,2025,34,2942,42
7485,33,95,5109,90,4154,42
7488,33,96,447,67,3147,42
7491,33,97,5523,56,5352,42
7494,33,98,4098,66,4534,42
7497,33,99,4464,24,5620,42
7500,33,100,3135,100,3720,42
7503,33,101,4116,100,4056,42
7506,33,102,990,57,4117,42
7509,33,103,4302,56,6496,42
7512,33,104,5121,55,3638,42
7515,33,105,3168,91,3937,42
7518,33,106,1005,36,3697,42
7521,33,107,996,32,3547,42
7524,33,108,1353,25,4316,42
7527,33,109,3411,83,3374,42
7530,33,110,5955,8,7716,42
7533,33,111,4521,32,6870,42
7536,33,112,1884,45,3499,42
7539,33,113,3951,37,3649,42
7542,33,114,2880,82,5332,42
7545,33,115,2946,36,5798,42
7548,33,116,2721,24,5204,42
7551,33,117,2130,36,3632,42
7554,33,118,2022,8,3807,42
7557,33,119,372,27,4613,42
7560,33,120,426,47,3785,42
7563,33,121,3810,40,3632,42
7566,33,122,2139,42,3381,42
7569,33,123,483,39,3160,42
7572,33,124,4518,16,3833,42
7575,33,125,387,56,4765,42
7578,33,126,3180,71,3945,42
7581,33,127,609,65,4480,42
7584,33,128,1332,42,3862,42
7587,33,129,270,61,3992,42
7590,33,130,4989,55,4391,42
7593,33,131,666,45,4489,42
7596,33,132,207,27,4925,42
7599,33,133,1437,28,4492,42
7602,33,134,4137,56,5000,42
7605,33,135,3798,18,4253,42
7608,33,136,2514,43,4121,42
7611,33,137,1263,32,3471,42
7614,33,138,1611,41,4380,42
7617,33,139,5073,54,3274,42
7620,33,140,1275,38,3024,42
7623,33,141,1641,66,3368,42
7626,33,142,4416,22,5513,42
7629,33,143,5457,57,3674,42
7632,33,144,4680,54,6380,42
7635,33,145,960,71,3525,42
7638,33,146,1248,73,3788,42
7641,33,147,5037,84,3197,42
7644,33,148,5205,49,4493,42
7647,33,149,2955,55,3794,42
7650,33,150,744,41,3760,42
7653,33,151,318,30,5956,42
7656,33,152,504,41,4392,42
7659,33,153,936,36,3180,42
7662,33,154,3753,5,4630,42
7665,33,155,1824,56,4557,42
7668,33,156,3117,66,4061,42
7671,33,157,4806,76,3986,42
7674,33,158,3450,99,4122,42
7677,33,159,5721,63,8984,42
7680,33,160,681,75,3495,42
7683,33,161,5844,61,12609,42
7686,33,162,1182,23,3886,42
7689,33,163,3327,92,6564,42
7692,33,164,3255,100,3530,42
7695,33,165,4635,98,3257,42
7698,33,166,5682,91,4454,42
7701,33,167,2457,43,3376,42
7704,33,168,3249,67,5102,42
7707,33,169,1737,42,3634,42
7710,33,170,1632,67,3076,42
7713,33,171,4170,63,2962,42
7716,33,172,1020,38,3906,42
7719,33,173,663,36,4009,42
7722,33,174,612,61,2807,42
7725,33,175,4662,47,3470,42
7728,33,176,4080,63,4186,42
7731,33,177,900,84,3213,42
7734,33,178,5628,47,3350,42
7737,33,179,2940,15,4498,42
7740,33,180,2358,39,2697,42
7743,33,181,1953,53,3185,42
7746,33,182,1209,65,8149,42
7749,33,183,5553,86,4216,42
7752,33,184,4050,26,3750,42
7755,33,185,1794,52,4121,42
7758,33,186,4221,0,3659,42
7761,33,187,3444,100,3788,42
7764,33,188,1323,37,4321,42
7767,33,189,2499,15,3179,42
7770,33,190,804,3,3586,42
7773,33,191,927,54,3883,42
7776,33,192,231,73,4170,42
7779,33,193,4746,65,5218,42
7782,33,194,1584,95,4014,42
7785,33,195,852,95,4798,42
7788,33,196,4248,0,4737,42
7791,33,197,153,32,4256,42
7794,33,198,4569,80,3436,42
7797,33,199,879,18,3157,42
7800,33,200,291,9,3942,42
7803,33,201,2865,58,18568,42
7806,33,202,4797,62,5402,42
7809,33,203,5061,86,4430,42
7812,33,204,1956,60,4773,42
7815,33,205,75,24,4937,42
7818,33,206,543,11,7711,42
7821,33,207,4374,0,6231,42
7824,33,208,4677,96,5849,42
7827,33,209,5190,66,4996,42
7830,33,210,4383,0,5926,42
7833,33,211,2067,68,5607,42
7836,33,212,5361,100,11373,42
7839,33,213,4830,21,4579,42
7842,33,214,1008,41,7720,42
7845,33,215,369,33,5740,42
7848,33,216,4542,10,7022,42
7851,33,217,3000,26,3979,42
7854,33,218,3516,100,5117,42
7857,33,219,5601,100,10962,42
7860,33,220,909,68,4144,42
7863,33,221,2904,96,7032,42
7866,33,222,5379,63,6272,42
7869,33,223,3030,74,5047,42
7872,33,224,4716,36,4306,42
7875,33,225,351,36,4288,42
7878,33,226,1809,56,4623,42
7881,33,227,2829,55,4631,42
7884,33,228,1029,27,12188,42
7887,33,229,2574,32,4264,42
7890,33,230,90,45,6627,42
7893,33,231,3984,18,6148,42
7896,33,232,1947,2,6505,42
7899,33,233,4218,29,4641,42
7902,33,234,5265,76,5583,42
7905,33,235,3927,0,4117,42
7908,33,236,5139,88,4346,42
7911,33,237,5256,56,5538,42
7914,33,238,3429,92,3963,42
7917,33,239,4431,28,4986,42
7920,33,240,2430,23,5551,42
7923,36,1,5466,39,3487,30
7926,36,2,4215,50,5995,30
7929,36,3,5880,30,6050,30
7932,36,4,213,4,3621,30
7935,36,5,2430,21,2370,30
7938,36,6,828,2,2376,30
7941,36,7,1848,33,2415,30
7944,36,8,2472,37,3810,30
7947,36,9,2184,50,2848,30
7950,36,10,738,39,1838,30
7953,36,11,4359,69,2859,30
7956,36,12,3837,75,1916,30
7959,36,13,5835,60,2285,30
7962,36,14,3951,58,2623,30
7965,36,15,540,56,2384,30
7968,36,16,3201,74,2060,30
7971,36,17,1224,59,2064,30
7974,36,18,1104,33,2388,30
7977,36,19,597,25,1912,30
7980,36,20,1779,56,3873,30
7983,36,21,5871,60,3477,30
7986,36,22,4887,62,2470,30
7989,36,23,2115,56,8021,30
7992,36,24,4107,56,2216,30
7995,36,25,5223,76,3975,30
7998,36,26,1248,38,2097,30
8001,36,27,2442,63,2944,30
8004,36,28,2088,67,2561,30
8007,36,29,4704,59,2293,30
8010,36,30,4770,65,2767,30
8013,36,31,3525,57,1967,30
8016,36,32,3060,64,1935,30
8019,36,33,3051,46,2630,30
8022,36,34,2379,53,1864,30
8025,36,35,5676,79,1949,30
8028,36,36,5592,78,2320,30
8031,36,37,4641,45,1991,30
8034,36,38,192,43,1710,30
8037,36,39,2313,40,1586,30
8040,36,40,4824,60,2244,30
8043,36,41,5964,61,1873,30
8046,36,42,630,60,1845,30
8049,36,43,2565,43,1856,30
8052,36,44,345,44,2438,30
8055,36,45,492,46,1979,30
8058,36,46,1056,33,2248,30
8061,36,47,1461,36,1627,30
8064,36,48,3546,73,2484,30
8067,36,49,4599,35,2084,30
8070,36,50,2403,49,2222,30
8073,36,51,1509,20,3255,30
8076,36,52,2226,53,3062,30
8079,36,53,5673,69,3001,30
8082,36,54,5688,75,4118,30
8085,36,55,1209,55,2322,30
8088,36,56,2877,36,2409,30
8091,36,57,4065,58,4242,30
8094,36,58,2910,59,3999,30
8097,36,59,402,42,3337,30
8100,36,60,2637,57,2671,30
8103,36,61,894,43,2558,30
8106,36,62,5364,52,2116,30
8109,36,63,5169,84,4917,30
8112,36,64,360,68,2130,30
8115,36,65,2826,37,2286,30
8118,36,66,2076,49,2330,30
8121,36,67,1245,50,1613,30
8124,36,68,2328,44,2410,30
8127,36,69,3231,82,3856,30
8130,36,70,1404,55,1892,30
8133,36,71,1833,80,2045,30
8136,36,72,5082,74,1906,30
8139,36,73,1407,44,1481,30
8142,36,74,4863,71,2224,30
8145,36,75,2508,66,2647,30
8148,36,76,2850,34,2393,30
8151,36,77,2958,62,4109,30
8154,36,78,5562,61,2796,30
8157,36,79,1242,35,1684,30
8160,36,80,5928,58,3181,30
8163,36,81,5187,85,3048,30
8166,36,82,4311,58,1797,30
8169,36,83,645,62,1878,30
8172,36,84,5631,79,2262,30
8175,36,85,1419,18,2206,30
8178,36,86,4293,25,2269,30
8181,36,87,3801,42,1846,30
8184,36,88,294,36,1789,30
8187,36,89,18,58,3672,30
8190,36,90,3321,42,1636,30
8193,36,91,3120,60,1904,30
8196,36,92,5025,63,1633,30
8199,36,93,2694,42,1783,30
8202,36,94,5430,64,2127,30
8205,36,95,1896,59,2431,30
8208,36,96,2301,59,1427,30
8211,36,97,4290,60,2243,30
8214,36,98,1188,60,2358,30
8217,36,99,3756,62,1949,30
8220,36,100,3681,77,2174,30
8223,36,101,4725,73,2091,30
8226,36,102,2523,61,2023,30
8229,36,103,3693,71,1715,30
8232,36,104,3636,64,4366,30
8235,36,105,3576,71,3589,30
8238,36,106,1503,69,13605,30
8241,36,107,5199,60,1711,30
8244,36,108,3033,22,2879,30
8247,36,109,2520,61,2269,30
8250,36,110,5538,80,2209,30
8253,36,111,2622,39,2382,30
8256,36,112,750,50,2529,30
8259,36,113,1794,87,3515,30
8262,36,114,1857,85,2199,30
8265,36,115,5460,77,1811,30
8268,36,116,633,37,2417,30
8271,36,117,5217,76,2040,30
8274,36,118,5211,85,1715,30
8277,36,119,396,37,1941,30
8280,36,120,2784,81,2003,30
8283,36,121,3219,78,2770,30
8286,36,122,1071,41,3276,30
8289,36,123,765,31,2035,30
8292,36,124,810,42,2525,30
8295,36,125,2682,58,1591,30
8298,36,126,2916,26,2102,30
8301,36,127,4071,46,2262,30
8304,36,128,2772,27,1913,30
8307,36,129,2028,50,3313,30
8310,36,130,1728,79,2150,30
8313,36,131,1155,51,2696,30
8316,36,132,4959,69,1873,30
8319,36,133,1413,35,2339,30
8322,36,134,3579,63,1742,30
8325,36,135,3279,80,2283,30
8328,36,136,3840,52,2259,30
8331,36,137,3084,22,1974,30
8334,36,138,954,9,1833,30
8337,36,139,2994,39,3308,30
8340,36,140,4512,68,3845,30
8343,36,141,2925,72,3937,30
8346,36,142,3255,73,1680,30
8349,36,143,5865,44,3115,30
8352,36,144,2679,50,1639,30
8355,36,145,2397,54,1377,30
8358,36,146,1656,63,1992,30
8361,36,147,3453,63,2603,30
8364,36,148,5556,81,2361,30
8367,36,149,3942,50,3108,30
8370,36,150,756,43,1976,30
8373,36,151,1863,40,1833,30
8376,36,152,5805,63,1969,30
8379,36,153,2469,57,1673,30
8382,36,154,3624,69,1922,30
8385,36,155,1998,52,1710,30
8388,36,156,3435,59,1985,30
8391,36,157,2004,54,1920,30
8394,36,158,4497,75,2067,30
8397,36,159,5196,88,2003,30
8400,36,160,4254,61,1520,30
8403,36,161,3048,37,3499,30
8406,36,162,2502,49,2103,30
8409,36,163,3810,48,1875,30
8412,36,164,4422,36,3017,30
8415,36,165,5295,58,2127,30
8418,36,166,4755,60,2308,30
8421,36,167,2337,44,2115,30
8424,36,168,2532,52,1712,30
8427,36,169,4416,42,2205,30
8430,36,170,4671,42,2682,30
8433,36,171,3144,76,2380,30
8436,36,172,54,44,1918,30
8439,36,173,204,65,2972,30
8442,36,174,393,41,1807,30
8445,36,175,3066,61,1870,30
8448,36,176,1809,57,2820,30
8451,36,177,4224,49,9428,30
8454,36,178,648,51,1802,30
8457,36,179,3306,52,2344,30
8460,36,180,1653,68,2233,30
8463,36,181,5862,65,1854,30
8466,36,182,2049,41,2052,30
8469,36,183,531,41,3814,30
8472,36,184,714,50,3107,30
8475,36,185,615,62,4009,30
8478,36,186,1512,70,1740,30
8481,36,187,2193,64,1859,30
8484,36,188,591,42,3115,30
8487,36,189,4971,66,1946,30
8490,36,190,522,61,1661,30
8493,36,191,4131,63,1670,30
8496,36,192,2070,28,1852,30
8499,36,193,4905,73,2510,30
8502,36,194,3126,64,2616,30
8505,36,195,2655,40,2246,30
8508,36,196,4296,52,1810,30
8511,36,197,885,52,1684,30
8514,36,198,3234,66,2377,30
8517,36,199,3963,63,2018,30
8520,36,200,3054,76,2012,30
8523,36,201,138,39,1775,30
8526,36,202,2118,51,2525,30
8529,36,203,4362,50,1878,30
8532,36,204,5439,64,2154,30
8535,36,205,4686,57,1659,30
8538,36,206,966,32,2330,30
8541,36,207,4803,58,2627,30
8544,36,208,858,41,1557,30
8547,36,209,4584,36,2205,30
8550,36,210,2394,40,2930,30
8553,36,211,1989,63,1552,30
8556,36,212,4998,91,2366,30
8559,36,213,1926,45,2174,30
8562,36,214,2136,47,1516,30
8565,36,215,3285,49,1336,30
8568,36,216,5961,50,1261,30
8571,36,217,4242,50,1730,30
8574,36,218,5655,50,2807,30
8577,36,219,5319,45,1765,30
8580,36,220,3531,51,1354,30
8583,36,221,4104,48,2411,30
8586,36,222,3543,48,2076,30
8589,36,223,4221,49,2268,30
8592,36,224,3729,49,1452,30
8595,36,225,3429,75,1733,30
8598,36,226,5478,45,2297,30
8601,36,227,3564,57,3190,30
8604,36,228,2286,49,2625,30
8607,36,229,741,48,1916,30
8610,36,230,1008,51,1470,30
8613,36,231,5097,61,1702,30
8616,36,232,1320,40,2198,30
8619,36,233,4389,49,1621,30
8622,36,234,4683,74,2119,30
8625,36,235,4137,42,1919,30
8628,36,236,2163,53,1656,30
8631,36,237,2904,38,2644,30
8634,36,238,1659,40,1927,30
8637,36,239,2415,51,2533,30
8640,36,240,2439,35,2164,30
8643,39,1,4269,16,8439,24
8646,39,2,768,30,5399,24
8649,39,3,3297,68,2509,24
8652,39,4,2868,83,5759,24
8655,39,5,4845,84,1930,24
8658,39,6,3345,17,6447,24
8661,39,7,4647,17,2624,24
8664,39,8,3018,0,2340,24
8667,39,9,2562,0,1740,24
8670,39,10,492,17,1856,24
8673,39,11,1872,99,2584,24
8676,39,12,996,66,2918,24
8679,39,13,4122,0,3230,24
8682,39,14,2397,50,4204,24
8685,39,15,5646,0,2864,24
8688,39,16,2517,0,1926,24
8691,39,17,5109,100,2674,24
8694,39,18,2211,17,2090,24
8697,39,19,246,33,2459,24
8700,39,20,1899,66,2145,24
8703,39,21,2055,82,3902,24
8706,39,22,4680,34,4392,24
8709,39,23,1476,65,3047,24
8712,39,24,3054,2,2341,24
8715,39,25,5193,0,2360,24
8718,39,26,5340,0,1898,24
8721,39,27,2376,32,2120,24
8724,39,28,2505,50,2914,24
8727,39,29,345,50,1717,24
8730,39,30,240,83,4556,24
8733,39,31,5730,100,2246,24
8736,39,32,4557,17,3814,24
8739,39,33,3966,67,6009,24
8742,39,34,1971,67,1843,24
8745,39,35,4347,83,2099,24
8748,39,36,2109,67,4090,24
8751,39,37,108,100,2789,24
8754,39,38,1959,68,2456,24
8757,39,39,99,67,2343,24
8760,39,40,2823,16,2057,24
8763,39,41,3510,66,52643,24
8766,39,42,5550,100,2313,24
8769,39,43,159,67,1933,24
8772,39,44,453,68,2219,24
8775,39,45,1803,0,2293,24
8778,39,46,396,66,1769,24
8781,39,47,3903,50,2448,24
8784,39,48,1425,67,1586,24
8787,39,49,2175,83,1568,24
8790,39,50,3600,18,3099,24
8793,39,51,36,0,5016,24
8796,39,52,5106,83,5011,24
8799,39,53,5565,0,2885,24
8802,39,54,3819,0,2337,24
8805,39,55,906,50,1810,24
8808,39,56,3630,83,2355,24
8811,39,57,3663,83,2106,24
8814,39,58,540,68,3317,24
8817,39,59,3981,18,2482,24
8820,39,60,4890,0,1801,24
8823,39,61,2814,67,2463,24
8826,39,62,861,100,2764,24
8829,39,63,3306,67,2113,24
8832,39,64,4587,16,3526,24
8835,39,65,5619,0,1903,24
8838,39,66,3216,82,2252,24
8841,39,67,5172,1,4032,24
8844,39,68,1398,67,18878,24
8847,39,69,888,66,2156,24
8850,39,70,819,67,2203,24
8853,39,71,5766,82,5228,24
8856,39,72,4776,0,1938,24
8859,39,73,999,66,2262,24
8862,39,74,5625,0,2226,24
8865,39,75,3249,66,1813,24
8868,39,76,2469,67,1870,24
8871,39,77,4983,0,2368,24
8874,39,78,495,67,2049,24
8877,39,79,4947,83,3658,24
8880,39,80,4089,0,2794,24
8883,39,81,765,50,2443,24
8886,39,82,5007,67,3755,24
8889,39,83,1143,50,2910,24
8892,39,84,1551,0,1854,24
8895,39,85,297,17,2407,24
8898,39,86,3714,0,1805,24
8901,39,87,5445,0,2890,24
8904,39,88,198,83,4492,24
8907,39,89,1245,67,3021,24
8910,39,90,1341,50,4182,24
8913,39,91,351,34,2279,24
8916,39,92,2940,0,6082,24
8919,39,93,1152,50,2154,24
8922,39,94,1356,50,2068,24
8925,39,95,3384,0,6093,24
8928,39,96,162,50,2440,24
8931,39,97,1239,66,3379,24
8934,39,98,3279,66,1635,24
8937,39,99,5169,0,4933,24
8940,39,100,2082,50,2476,24
8943,39,101,5049,83,2513,24
8946,39,102,3780,68,2683,24
8949,39,103,114,50,1983,24
8952,39,104,5187,0,8268,24
8955,39,105,2811,0,3413,24
8958,39,106,111,50,1841,24
8961,39,107,4938,82,2793,24
8964,39,108,3783,50,1772,24
8967,39,109,2919,68,2122,24
8970,39,110,3756,50,1578,24
8973,39,111,2178,50,1559,24
8976,39,112,1365,67,1739,24
8979,39,113,2436,33,1853,24
8982,39,114,2739,66,3270,24
8985,39,115,471,83,2485,24
8988,39,116,4665,100,3291,24
8991,39,117,2526,16,3061,24
8994,39,118,5853,0,2479,24
8997,39,119,1860,0,2764,24
9000,39,120,1347,0,2275,24
9003,39,121,1227,16,2220,24
9006,39,122,4176,34,2020,24
9009,39,123,5496,16,2938,24
9012,39,124,3870,33,3168,24
9015,39,125,2067,33,2461,24
9018,39,126,1674,16,4720,24
9021,39,127,4539,0,2324,24
9024,39,128,4167,82,2837,24
9027,39,129,2916,50,2790,24
9030,39,130,1512,83,3057,24
9033,39,131,3531,100,5231,24
9036,39,132,3360,83,5814,24
9039,39,133,3090,0,4005,24
9042,39,134,3747,50,1858,24
9045,39,135,1665,0,2190,24
9048,39,136,585,50,2546,24
9051,39,137,2352,65,4796,24
9054,39,138,1257,66,3240,24
9057,39,139,1083,66,2880,24
9060,39,140,4902,0,2262,24
9063,39,141,1068,66,7686,24
9066,39,142,2361,67,2616,24
9069,39,143,4536,0,3764,24
9072,39,144,549,16,2556,24
9075,39,145,1896,17,2766,24
9078,39,146,4725,16,2432,24
9081,39,147,4005,65,2466,24
9084,39,148,3276,83,2102,24
9087,39,149,5910,0,4608,24
9090,39,150,744,66,2801,24
9093,39,151,288,82,2955,24
9096,39,152,2742,1,2205,24
9099,39,153,1350,66,1733,24
9102,39,154,981,67,1900,24
9105,39,155,282,67,1328,24
9108,39,156,1755,2,2323,24
9111,39,157,2502,68,1794,24
9114,39,158,4605,66,2332,24
9117,39,159,4581,0,2660,24
9120,39,160,4716,0,3685,24
9123,39,161,1749,3,1724,24
9126,39,162,2355,84,3166,24
9129,39,163,5145,2,3675,24
9132,39,164,2199,70,1723,24
9135,39,165,4077,67,1278,24
9138,39,166,2463,73,1958,24
9141,39,167,2973,16,3785,24
9144,39,168,4392,100,3630,24
9147,39,169,4032,100,2078,24
9150,39,170,840,32,1907,24
9153,39,171,1029,12,2300,24
9156,39,172,4596,9,2047,24
9159,39,173,2826,11,1675,24
9162,39,174,4635,10,2604,24
9165,39,175,2856,12,3120,24
9168,39,176,3678,8,5336,24
9171,39,177,3201,9,2513,24
9174,39,178,1695,0,3258,24
9177,39,179,4491,66,3484,24
9180,39,180,3993,50,2784,24
9183,39,181,4200,82,2362,24
9186,39,182,1047,82,1900,24
9189,39,183,5649,4,2370,24
9192,39,184,3459,64,2220,24
9195,39,185,2133,70,1758,24
9198,39,186,2004,69,1654,24
9201,39,187,1938,66,1662,24
9204,39,188,1050,35,2350,24
9207,39,189,2700,35,1667,24
9210,39,190,3210,68,1844,24
9213,39,191,4074,83,2758,24
9216,39,192,459,66,2903,24
9219,39,193,366,35,1979,24
9222,39,194,5871,68,2676,24
9225,39,195,1920,67,2035,24
9228,39,196,4458,67,1784,24
9231,39,197,3144,66,2380,24
9234,39,198,5526,33,2902,24
9237,39,199,4590,66,1944,24
9240,39,200,1557,68,2024,24
9243,39,201,4629,69,2353,24
9246,39,202,3399,0,2336,24
9249,39,203,4704,2,2885,24
9252,39,204,4959,1,1595,24
9255,39,205,3843,68,1864,24
9258,39,206,5220,0,2277,24
9261,39,207,9,66,2646,24
9264,39,208,4002,83,2186,24
9267,39,209,3918,16,2407,24
9270,39,210,2307,100,3801,24
9273,39,211,2124,16,2558,24
9276,39,212,1041,15,2324,24
9279,39,213,3777,83,4397,24
9282,39,214,1569,17,3191,24
9285,39,215,4398,67,2668,24
9288,39,216,4995,17,1802,24
9291,39,217,4110,67,21897,24
9294,39,218,5784,100,2308,24
9297,39,219,4248,83,2158,24
9300,39,220,5037,65,3823,24
9303,39,221,3687,68,2450,24
9306,39,222,3246,65,1674,24
9309,39,223,5100,0,2333,24
9312,39,224,2706,0,1885,24
9315,39,225,4368,0,2452,24
9318,39,226,4935,84,2933,24
9321,39,227,2043,16,4355,24
9324,39,228,1563,65,4550,24
9327,39,229,1089,32,1889,24
9330,39,230,5067,34,2112,24
9333,39,231,5058,67,2198,24
9336,39,232,1923,67,2370,24
9339,39,233,2607,32,8635,24
9342,39,234,2040,67,2598,24
9345,39,235,1020,34,3389,24
9348,39,236,3675,33,1938,24
9351,39,237,3624,17,2709,24
9354,39,238,1686,0,3145,24
9357,39,239,5160,0,2331,24
9360,39,240,5271,35,4450,24
9363,42,1,5031,66,18650,27
9366,42,2,1383,35,12068,27
9369,42,3,1014,50,9399,27
9372,42,4,2559,50,11244,27
9375,42,5,1068,84,10013,27
9378,42,6,789,32,9940,27
9381,42,7,879,16,10210,27
9384,42,8,3054,84,8980,27
9387,42,9,3273,97,12619,27
9390,42,10,5049,65,9643,27
9393,42,11,2091,50,24225,27
9396,42,12,333,66,10836,27
9399,42,13,5463,98,7776,27
9402,42,14,1074,16,9374,27
9405,42,15,4797,50,8157,27
9408,42,16,5472,84,6743,27
9411,42,17,444,82,8968,27
9414,42,18,2238,32,6904,27
9417,42,19,1803,100,8082,27
9420,42,20,3369,99,10270,27
9423,42,21,183,67,12457,27
9426,42,22,4293,15,8402,27
9429,42,23,909,29,13458,27
9432,42,24,2316,2,11472,27
9435,42,25,996,17,10933,27
9438,42,26,5085,83,8535,27
9441,42,27,2550,32,7542,27
9444,42,28,2799,83,7578,27
9447,42,29,4059,0,7567,27
9450,42,30,3978,66,9667,27
9453,42,31,5724,100,26511,27
9456,42,32,3591,83,8563,27
9459,42,33,3930,30,15247,27
9462,42,34,3096,100,9394,27
9465,42,35,1497,83,7174,27
9468,42,36,1485,83,22875,27
9471,42,37,1101,28,6863,27
9474,42,38,1029,68,6707,27
9477,42,39,6,83,8057,27
9480,42,40,924,31,7271,27
9483,42,41,2700,50,7453,27
9486,42,42,1311,32,9150,27
9489,42,43,3387,83,6976,27
9492,42,44,2640,33,6926,27
9495,42,45,5571,100,8708,27
9498,42,46,4134,15,6693,27
9501,42,47,3303,100,8105,27
9504,42,48,357,16,6447,27
9507,42,49,4176,50,5612,27
9510,42,50,2286,34,6778,27
9513,42,51,3615,34,6522,27
9516,42,52,2535,84,6272,27
9519,42,53,678,82,6202,27
9522,42,54,5916,17,8252,27
9525,42,55,1548,68,10008,27
9528,42,56,2703,82,6175,27
9531,42,57,5499,84,6643,27
9534,42,58,1344,67,7391,27
9537,42,59,2670,17,6335,27
9540,42,60,5256,100,6656,27
9543,42,61,414,32,6237,27
9546,42,62,5628,95,55072,27
9549,42,63,687,50,8931,27
9552,42,64,5925,100,10015,27
9555,42,65,1584,84,5558,27
9558,42,66,3774,31,8487,27
9561,42,67,4527,100,6485,27
9564,42,68,3024,66,215499,27
9567,42,69,954,34,5613,27
9570,42,70,3471,67,6486,27
9573,42,71,1647,83,6339,27
9576,42,72,2904,84,6166,27
9579,42,73,5565,83,5551,27
9582,42,74,2298,34,5489,27
9585,42,75,2310,50,9360,27
9588,42,76,2244,32,5206,27
9591,42,77,5235,100,6127,27
9594,42,78,2829,67,5856,27
9597,42,79,5892,83,5735,27
9600,42,80,3093,33,7663,27
9603,42,81,2538,33,5808,27
9606,42,82,1155,50,5562,27
9609,42,83,1698,84,6213,27
9612,42,84,3339,35,6311,27
9615,42,85,5253,84,5733,27
9618,42,86,1059,50,6126,27
9621,42,87,2397,30,6089,27
9624,42,88,1911,31,6151,27
9627,42,89,3825,33,5978,27
9630,42,90,4887,83,4911,27
9633,42,91,3015,83,6262,27
9636,42,92,5631,82,5770,27
9639,42,93,3090,32,5844,27
9642,42,94,318,97,7416,27
9645,42,95,3846,32,4910,27
9648,42,96,558,50,5572,27
9651,42,97,2868,84,5978,27
9654,42,98,4938,93,7451,27
9657,42,99,2028,30,6396,27
9660,42,100,4869,82,5596,27
9663,42,101,1473,0,7058,27
9666,42,102,1377,2,5964,27
9669,42,103,3318,62,9380,27
9672,42,104,2916,31,6358,27
9675,42,105,1686,83,5855,27
9678,42,106,2556,17,6554,27
9681,42,107,5322,81,5290,27
9684,42,108,1569,66,7374,27
9687,42,109,2499,14,6137,27
9690,42,110,5775,82,19366,27
9693,42,111,5451,100,5633,27
9696,42,112,4458,50,10042,27
9699,42,113,2169,68,7364,27
9702,42,114,1809,67,7942,27
9705,42,115,5751,83,5768,27
9708,42,116,4227,50,5671,27
9711,42,117,4950,84,8260,27
9714,42,118,5664,63,5866,27
9717,42,119,543,82,5806,27
9720,42,120,2460,34,5387,27
9723,42,121,1641,50,6084,27
9726,42,122,1554,83,7052,27
9729,42,123,975,51,7700,27
9732,42,124,1398,50,9297,27
9735,42,125,378,64,7100,27
9738,42,126,2055,33,7950,27
9741,42,127,2331,31,6700,27
9744,42,128,348,33,7610,27
9747,42,129,5199,50,7348,27
9750,42,130,270,34,6473,27
9753,42,131,3453,64,7859,27
9756,42,132,4980,84,7879,27
9759,42,133,4959,83,6945,27
9762,42,134,5940,64,5668,27
9765,42,135,894,50,8971,27
9768,42,136,2328,32,5753,27
9771,42,137,5895,82,7055,27
9774,42,138,2715,31,7115,27
9777,42,139,3960,62,6624,27
9780,42,140,2214,31,6956,27
9783,42,141,4113,83,7816,27
9786,42,142,3192,51,14432,27
9789,42,143,1740,89,11250,27
9792,42,144,5784,32,8872,27
9795,42,145,3918,33,7951,27
9798,42,146,1149,31,7594,27
9801,42,147,5796,64,6203,27
9804,42,148,3654,66,5891,27
9807,42,149,4239,29,5505,27
9810,42,150,4026,,,27
9813,42,151,51,34,6932,27
9816,42,152,2934,56,8393,27
9819,42,153,3006,56,7681,27
9822,42,154,3549,83,6073,27
9825,42,155,2856,32,6687,27
9828,42,156,1536,66,6047,27
9831,42,157,2430,33,14902,27
9834,42,158,327,17,7572,27
9837,42,159,4902,83,6220,27
9840,42,160,5379,82,6044,27
9843,42,161,3459,65,6580,27
9846,42,162,1218,83,23614,27
9849,42,163,1860,50,6674,27
9852,42,164,2601,31,6675,27
9855,42,165,5475,84,8062,27
9858,42,166,2271,29,7276,27
9861,42,167,3492,33,6639,27
9864,42,168,3357,50,6478,27
9867,42,169,1797,83,6780,27
9870,42,170,3045,81,5932,27
9873,42,171,1140,31,7117,27
9876,42,172,2841,32,9448,27
9879,42,173,5862,31,6402,27
9882,42,174,210,32,7308,27
9885,42,175,5553,83,5840,27
9888,42,176,5754,67,6564,27
9891,42,177,5445,85,7594,27
9894,42,178,2031,35,12137,27
9897,42,179,2730,66,6539,27
9900,42,180,1080,50,5633,27
9903,42,181,1305,33,6022,27
9906,42,182,2448,50,4967,27
9909,42,183,4998,62,7595,27
9912,42,184,4923,100,9657,27
9915,42,185,1002,32,5651,27
9918,42,186,267,50,6202,27
9921,42,187,4323,51,8243,27
9924,42,188,1527,67,9969,27
9927,42,189,4014,32,10648,27
9930,42,190,5328,83,13607,27
9933,42,191,5496,80,8237,27
9936,42,192,2937,65,11570,27
9939,42,193,1713,81,7103,27
9942,42,194,1443,34,6857,27
9945,42,195,1215,64,6404,27
9948,42,196,3741,15,7434,27
9951,42,197,3843,16,6478,27
9954,42,198,4020,16,8772,27
9957,42,199,3171,67,6477,27
9960,42,200,2529,13,6435,27
9963,42,201,3789,16,7244,27
9966,42,202,5436,65,8624,27
9969,42,203,2010,33,7189,27
9972,42,204,5100,83,5225,27
9975,42,205,3867,32,5360,27
9978,42,206,3981,32,7018,27
9981,42,207,5646,100,7201,27
9984,42,208,1023,61,5471,27
9987,42,209,4587,100,7067,27
9990,42,210,5034,43,7054,27
9993,42,211,5901,66,10626,27
9996,42,212,4251,33,13780,27
9999,42,213,4077,64,14357,27
10002,42,214,3906,63,18125,27
10005,42,215,5010,65,13166,27
10008,42,216,1506,82,6526,27
10011,42,217,1395,50,5606,27
10014,42,218,1125,34,5668,27
10017,42,219,294,34,5297,27
10020,42,220,1254,65,5336,27
10023,42,221,3771,33,10844,27
10026,42,222,4413,32,5803,27
10029,42,223,4299,32,5397,27
10032,42,224,4440,84,6011,27
10035,42,225,939,34,5399,27
10038,42,226,5148,66,5483,27
10041,42,227,750,69,71987,27
10044,42,228,249,65,8630,27
10047,42,229,4167,33,5767,27
10050,42,230,4071,32,5534,27
10053,42,231,2241,50,6517,27
10056,42,232,2109,32,9414,27
10059,42,233,2772,30,9057,27
10062,42,234,2655,33,8186,27
10065,42,235,1488,65,6725,27
10068,42,236,4446,66,6368,27
10071,42,237,3063,84,6994,27
10074,42,238,2673,33,7952,27
10077,42,239,5427,83,6036,27
10080,42,240,4701,32,7632,27
10083,45,1,1935,0,25289,51
10086,45,2,2529,0,23858,51
10089,45,3,1977,0,16641,51
10092,45,4,2916,7,29110,51
10095,45,5,5904,0,28179,51
10098,45,6,2208,5,25351,51
10101,45,7,3807,13,15319,51
10104,45,8,2865,26,17060,51
10107,45,9,5715,42,32311,51
10110,45,10,2304,11,18533,51
10113,45,11,5082,12,12382,51
10116,45,12,816,3,24877,51
10119,45,13,1176,0,10560,51
10122,45,14,642,22,25096,51
10125,45,15,4992,54,19466,51
10128,45,16,2373,23,12143,51
10131,45,17,2640,10,15938,51
10134,45,18,870,61,14118,51
10137,45,19,5871,26,22375,51
10140,45,20,4824,66,20155,51
10143,45,21,1503,76,14452,51
10146,45,22,5454,70,10498,51
10149,45,23,285,0,10588,51
10152,45,24,2817,58,13246,51
10155,45,25,216,0,12909,51
10158,45,26,5448,59,12229,51
10161,45,27,357,24,7656,51
10164,45,28,5697,75,15008,51
10167,45,29,3198,86,9084,51
10170,45,30,2256,20,80832,51
10173,45,31,759,0,8416,51
10176,45,32,4581,56,12260,51
10179,45,33,2277,15,8842,51
10182,45,34,2754,39,119616,51
10185,45,35,5886,29,10221,51
10188,45,36,960,43,15026,51
10191,45,37,5922,41,9200,51
10194,45,38,2370,34,8111,51
10197,45,39,2535,28,6949,51
10200,45,40,5910,63,17570,51
10203,45,41,3996,44,6607,51
10206,45,42,5691,79,8965,51
10209,45,43,1842,62,10216,51
10212,45,44,5856,39,11403,51
10215,45,45,5412,81,9294,51
10218,45,46,852,31,12144,51
10221,45,47,3540,53,39749,51
10224,45,48,3480,77,9888,51
10227,45,49,2880,66,8645,51
10230,45,50,201,36,9523,51
10233,45,51,3318,3,7193,51
10236,45,52,4323,26,7335,51
10239,45,53,840,16,6349,51
10242,45,54,2223,37,8090,51
10245,45,55,2550,21,315548,51
10248,45,56,171,34,6762,51
10251,45,57,474,25,11181,51
10254,45,58,3150,39,9193,51
10257,45,59,3234,59,7621,51
10260,45,60,2241,23,6060,51
10263,45,61,5427,85,9950,51
10266,45,62,138,31,6871,51
10269,45,63,1119,0,8703,51
10272,45,64,939,16,6105,51
10275,45,65,819,23,15607,51
10278,45,66,1062,69,8298,51
10281,45,67,108,30,11738,51
10284,45,68,810,25,5929,51
10287,45,69,2967,58,12873,51
10290,45,70,2163,25,6035,51
10293,45,71,1737,88,9087,51
10296,45,72,3630,60,7402,51
10299,45,73,2997,20,8558,51
10302,45,74,1221,27,9158,51
10305,45,75,2106,0,6411,51
10308,45,76,4989,64,5879,51
10311,45,77,342,55,7831,51
10314,45,78,5121,41,14946,51
10317,45,79,261,27,7061,51
10320,45,80,5592,69,8144,51
10323,45,81,843,22,5433,51
10326,45,82,612,46,9788,51
10329,45,83,1209,21,7236,51
10332,45,84,291,22,821068,51
10335,45,85,4908,96,11171,51
10338,45,86,639,76,7152,51
10341,45,87,2196,68,14475,51
10344,45,88,1602,18,11714,51
10347,45,89,5652,64,6916,51
10350,45,90,1668,51,13360,51
10353,45,91,321,5,7094,51
10356,45,92,3348,59,34801,51
10359,45,93,3894,22,12239,51
10362,45,94,3177,24,10382,51
10365,45,95,1674,73,119859,51
10368,45,96,2979,68,18446,51
10371,45,97,5067,22,8807,51
10374,45,98,4110,24,54733,51
10377,45,99,4959,53,11709,51
10380,45,100,1749,82,14829,51
10383,45,101,1779,56,11705,51
10386,45,102,984,26,8215,51
10389,45,103,1647,19,11745,51
10392,45,104,3201,29,8937,51
10395,45,105,4392,9,8035,51
10398,45,106,198,13,8141,51
10401,45,107,5490,75,14095,51
10404,45,108,1431,27,9470,51
10407,45,109,1263,25,12684,51
10410,45,110,3078,81,9597,51
10413,45,111,4191,21,6437,51
10416,45,112,1929,21,10183,51
10419,45,113,174,20,9750,51
10422,45,114,828,20,9586,51
10425,45,115,804,35,12102,51
10428,45,116,1971,22,10710,51
10431,45,117,3468,59,15277,51
10434,45,118,4452,80,11771,51
10437,45,119,4929,92,12315,51
10440,45,120,4950,63,13621,51
10443,45,121,693,20,6151,51
10446,45,122,3681,74,10615,51
10449,45,123,2844,25,9321,51
10452,45,124,4896,61,15892,51
10455,45,125,1068,20,11123,51
10458,45,126,4926,26,12133,51
10461,45,127,4152,21,9157,51
10464,45,128,2577,15,10174,51
10467,45,129,75,23,10615,51
10470,45,130,2700,18,7356,51
10473,45,131,210,18,9474,51
10476,45,132,5712,84,13207,51
10479,45,133,2025,45,13538,51
10482,45,134,4449,70,10760,51
10485,45,135,537,36,8130,51
10488,45,136,2280,28,8693,51
10491,45,137,1053,21,10540,51
10494,45,138,399,21,13583,51
10497,45,139,2112,15,13209,51
10500,45,140,4905,81,12136,51
10503,45,141,5460,51,11267,51
10506,45,142,273,17,8418,51
10509,45,143,3036,25,10901,51
10512,45,144,1344,23,9078,51
10515,45,145,5832,60,14732,51
10518,45,146,2001,21,31005,51
10521,45,147,435,39,70272,51
10524,45,148,5673,60,23294,51
10527,45,149,2679,36,12853,51
10530,45,150,1143,20,32076,51
10533,45,151,1821,33,40860,51
10536,45,152,3453,29,11415,51
10539,45,153,2574,23,6223,51
10542,45,154,354,22,6091,51
10545,45,155,1923,18,10260,51
10548,45,156,4497,62,11191,51
10551,45,157,3264,43,8192,51
10554,45,158,5631,61,13012,51
10557,45,159,2496,15,10100,51
10560,45,160,2238,21,233411,51
10563,45,161,5256,56,6076,51
10566,45,162,2778,66,8467,51
10569,45,163,1188,57,8615,51
10572,45,164,1758,64,11433,51
10575,45,165,684,24,6502,51
10578,45,166,3417,27,7622,51
10581,45,167,1113,25,9010,51
10584,45,168,3099,59,14818,51
10587,45,169,5520,62,12182,51
10590,45,170,2730,21,19773,51
10593,45,171,5076,22,37543,51
10596,45,172,4869,48,12529,51
10599,45,173,5937,51,15115,51
10602,45,174,3516,78,10950,51
10605,45,175,3534,38,14950,51
10608,45,176,4350,17,8183,51
10611,45,177,3915,9,9915,51
10614,45,178,237,28,10339,51
10617,45,179,2853,60,11886,51
10620,45,180,3861,19,10297,51
10623,45,181,3519,56,11825,51
10626,45,182,1443,34,12095,51
10629,45,183,438,28,11074,51
10632,45,184,5124,70,17134,51
10635,45,185,2367,17,9558,51
10638,45,186,147,18,11949,51
10641,45,187,2400,69,21579,51
10644,45,188,5433,82,15388,51
10647,45,189,717,23,17989,51
10650,45,190,2274,18,7427,51
10653,45,191,5706,95,17171,51
10656,45,192,4953,20,14525,51
10659,45,193,5139,33,10325,51
10662,45,194,3921,17,7829,51
10665,45,195,3024,22,7044,51
10668,45,196,2775,63,8112,51
10671,45,197,429,19,27860,51
10674,45,198,5874,80,54896,51
10677,45,199,4194,18,25752,51
10680,45,200,4083,55,25526,51
10683,45,201,3834,19,75398,51
10686,45,202,5883,70,14476,51
10689,45,203,5013,39,12469,51
10692,45,204,1791,93,39293,51
10695,45,205,5145,37,19817,51
10698,45,206,1005,27,7827,51
10701,45,207,4617,63,8786,51
10704,45,208,3204,37,14798,51
10707,45,209,3456,28,9817,51
10710,45,210,2160,49,7215,51
10713,45,211,2121,55,6241,51
10716,45,212,4296,20,5925,51
10719,45,213,5022,100,8867,51
10722,45,214,1566,21,8400,51
10725,45,215,921,25,7005,51
10728,45,216,420,26,8116,51
10731,45,217,3702,61,9816,51
10734,45,218,4173,18,6066,51
10737,45,219,2481,57,9571,51
10740,45,220,627,29,9752,51
10743,45,221,1386,27,5922,51
10746,45,222,4464,60,6382,51
10749,45,223,1359,12,5494,51
10752,45,224,669,3,4943,51
10755,45,225,1554,77,6003,51
10758,45,226,2946,60,9353,51
10761,45,227,2553,15,7228,51
10764,45,228,504,3,5080,51
10767,45,229,1275,33,4794,51
10770,45,230,4782,26,6615,51
10773,45,231,4683,8,8164,51
10776,45,232,4677,43,8894,51
10779,45,233,4551,90,8887,51
10782,45,234,4737,32,5988,51
10785,45,235,3726,14,4582,51
10788,45,236,3672,25,8829,51
10791,45,237,3795,13,5636,51
10794,45,238,2643,28,5341,51
10797,45,239,2823,73,11167,51
10800,45,240,417,14,24334,51
10803,48,1,24,25,7551,3
10806,48,2,1650,50,5651,3
10809,48,3,5856,45,2873,3
10812,48,4,4239,82,3759,3
10815,48,5,2649,54,2918,3
10818,48,6,5874,66,3214,3
10821,48,7,2862,36,4795,3
10824,48,8,2589,66,4848,3
10827,48,9,5925,50,6370,3
10830,48,10,4380,83,4987,3
10833,48,11,3885,100,2325,3
10836,48,12,2406,44,4074,3
10839,48,13,981,83,2875,3
10842,48,14,1893,71,2621,3
10845,48,15,4263,58,28359,3
10848,48,16,2166,84,11786,3
10851,48,17,4776,54,8320,3
10854,48,18,5610,63,3869,3
10857,48,19,5145,67,2954,3
10860,48,20,3309,61,2136,3
10863,48,21,2343,84,2559,3
10866,48,22,4716,40,2139,3
10869,48,23,4596,55,2143,3
10872,48,24,2658,56,1968,3
10875,48,25,1335,67,2435,3
10878,48,26,1023,51,2371,3
10881,48,27,5343,52,4708,3
10884,48,28,4752,83,4569,3
10887,48,29,2874,34,2397,3
10890,48,30,1206,63,5615,3
10893,48,31,5226,50,6266,3
10896,48,32,5382,50,2924,3
10899,48,33,150,84,3493,3
10902,48,34,4953,22,2622,3
10905,48,35,2883,14,1740,3
10908,48,36,4845,54,2815,3
10911,48,37,4008,100,3319,3
10914,48,38,1737,52,7561,3
10917,48,39,3933,82,3133,3
10920,48,40,3393,40,2843,3
10923,48,41,3171,40,2124,3
10926,48,42,1593,40,2043,3
10929,48,43,2928,26,3032,3
10932,48,44,5049,50,3084,3
10935,48,45,5586,57,3842,3
10938,48,46,5757,37,4234,3
10941,48,47,3891,85,2208,3
10944,48,48,1197,70,2424,3
10947,48,49,2850,42,2068,3
10950,48,50,2559,87,3567,3
10953,48,51,648,58,5111,3
10956,48,52,3273,34,3014,3
10959,48,53,3897,100,2211,3
10962,48,54,2817,13,3619,3
10965,48,55,3345,49,3363,3
10968,48,56,2547,100,2755,3
10971,48,57,4902,5,3786,3
10974,48,58,5430,56,3213,3
10977,48,59,1824,45,2782,3
10980,48,60,2538,100,2191,3
10983,48,61,5460,45,2500,3
10986,48,62,2703,68,1808,3
10989,48,63,2328,81,1978,3
10992,48,64,5391,47,2075,3
10995,48,65,4479,70,2693,3
10998,48,66,3867,100,2236,3
11001,48,67,3975,100,2138,3
11004,48,68,4203,83,2102,3
11007,48,69,3993,100,2101,3
11010,48,70,3183,39,1864,3
11013,48,71,5952,50,2984,3
11016,48,72,1239,37,2641,3
11019,48,73,1584,42,3427,3
11022,48,74,2622,67,2448,3
11025,48,75,3564,16,3703,3
11028,48,76,1620,33,2093,3
11031,48,77,2460,84,2272,3
11034,48,78,5310,5,1907,3
11037,48,79,4401,33,2244,3
11040,48,80,4275,83,2303,3
11043,48,81,3396,44,2494,3
11046,48,82,2892,30,2552,3
11049,48,83,4680,18,1892,3
11052,48,84,4674,41,2441,3
11055,48,85,2640,66,2189,3
11058,48,86,5370,40,1736,3
11061,48,87,5073,36,2015,3
11064,48,88,3669,36,2825,3
11067,48,89,3138,39,1869,3
11070,48,90,2814,68,3504,3
11073,48,91,2808,42,1869,3
11076,48,92,1857,49,4143,3
11079,48,93,4866,41,2686,3
11082,48,94,741,75,4106,3
11085,48,95,1245,56,3694,3
11088,48,96,5715,45,3077,3
11091,48,97,4509,50,4453,3
11094,48,98,261,85,4137,3
11097,48,99,5688,53,3064,3
11100,48,100,735,71,2335,3
11103,48,101,5292,39,3022,3
11106,48,102,5319,30,2098,3
11109,48,103,4089,90,4090,3
11112,48,104,5880,58,79377,3
11115,48,105,1443,47,6369,3
11118,48,106,3711,53,2546,3
11121,48,107,492,45,3570,3
11124,48,108,3291,57,8388,3
11127,48,109,2034,70,7942,3
11130,48,110,4269,84,2742,3
11133,48,111,666,41,9974,3
11136,48,112,2556,87,2441,3
11139,48,113,4134,65,4001,3
11142,48,114,3990,98,3144,3
11145,48,115,621,66,2910,3
11148,48,116,1107,37,6275,3
11151,48,117,4809,31,2137,3
11154,48,118,2715,57,2972,3
11157,48,119,1569,22,2011,3
11160,48,120,1851,29,1816,3
11163,48,121,702,39,2403,3
11166,48,122,3519,27,1810,3
11169,48,123,5202,59,4361,3
11172,48,124,3324,35,2354,3
11175,48,125,162,42,2451,3
11178,48,126,2787,31,4379,3
11181,48,127,4194,66,6208,3
11184,48,128,1623,52,5680,3
11187,48,129,5655,30,8471,3
11190,48,130,5124,22,2395,3
11193,48,131,5232,37,1761,3
11196,48,132,5358,29,3107,3
11199,48,133,675,56,3482,3
11202,48,134,2739,71,4094,3
11205,48,135,570,29,5299,3
11208,48,136,3537,37,8465,3
11211,48,137,4722,51,35874,3
11214,48,138,891,52,6524,3
11217,48,139,1470,32,2521,3
11220,48,140,2964,12,2519,3
11223,48,141,3849,84,2816,3
11226,48,142,3093,52,2967,3
11229,48,143,2394,67,3610,3
11232,48,144,1581,42,3637,3
11235,48,145,4116,100,2742,3
11238,48,146,456,39,2835,3
11241,48,147,1647,54,3377,3
11244,48,148,549,61,2598,3
11247,48,149,2541,91,2974,3
11250,48,150,1557,9,2345,3
11253,48,151,252,0,2036,3
11256,48,152,1500,32,2678,3
11259,48,153,2031,66,2305,3
11262,48,154,4545,16,2380,3
11265,48,155,4113,84,2623,3
11268,48,156,5118,45,2134,3
11271,48,157,2562,47,4013,3
11274,48,158,2904,49,4239,3
11277,48,159,1638,36,1835,3
11280,48,160,342,53,2996,3
11283,48,161,4305,55,2550,3
11286,48,162,4833,39,3499,3
11289,48,163,171,47,2607,3
11292,48,164,225,45,2147,3
11295,48,165,5055,35,2046,3
11298,48,166,1332,30,2160,3
11301,48,167,5190,44,1739,3
11304,48,168,2385,71,2416,3
11307,48,169,3534,34,2439,3
